EXPLAIN
TAG	QCM
TITLE	LABEL	Quartz Crystal Microbalance	Test &Identifier
DATE	LABEL	04/06/2014	Date
TIME	LABEL	16:13:46	Time
AREAOFOVERLAP	QUANT	2.05000E-001	Area (cm^2)
CALIBRATIONFACTOR	QUANT	226.000000	Calibration Factor (Hz cm^2/ug)
CENTERFREQ	QUANT	9.98241E+006	Center Frequency (Hz)
FREQSTEP	QUANT	2.00000E-001	(Hz)
FITMETH	IQUANT	1	Fit Method
QCMDESCRIPTION	LABEL	Test Identifier	Description
QCMCURVE	DTABLE
	t	fs	fp	chisq	As	Ap
	s	MHz	MHz	arb	Mag	Mag
	0.150000	9.98042421	9.98550581	7.980E-007	1.88345051	2.39888930
	0.435000	9.98042461	9.98550661	7.858E-007	1.88341510	2.39889288
	0.695000	9.98042661	9.98550621	8.080E-007	1.88340425	2.39888000
	0.955000	9.98042621	9.98550661	7.899E-007	1.88345039	2.39891410
	1.220000	9.98042541	9.98550701	7.836E-007	1.88336873	2.39894080
	1.480000	9.98042641	9.98550661	7.962E-007	1.88343906	2.39895248
	1.745000	9.98042681	9.98550681	8.052E-007	1.88330865	2.39887857
	2.005000	9.98042741	9.98550601	8.072E-007	1.88337278	2.39891744
	2.260000	9.98042681	9.98550641	7.957E-007	1.88327718	2.39880395
	2.520000	9.98042721	9.98550661	7.936E-007	1.88318264	2.39879155
	2.775000	9.98042821	9.98550581	8.307E-007	1.88335538	2.39892030
	3.035000	9.98042721	9.98550701	8.069E-007	1.88336706	2.39895511
	3.300000	9.98042741	9.98550721	8.011E-007	1.88324666	2.39888597
	3.560000	9.98042801	9.98550621	8.086E-007	1.88331461	2.39886451
	3.815000	9.98042821	9.98550661	8.044E-007	1.88325500	2.39889622
	4.070000	9.98042861	9.98550681	8.241E-007	1.88326395	2.39888167
	4.325000	9.98042861	9.98550661	8.045E-007	1.88328874	2.39890003
	4.585000	9.98042761	9.98550721	7.910E-007	1.88327062	2.39886665
	4.865000	9.98042601	9.98550861	7.701E-007	1.88321936	2.39888334
	5.155000	9.98042601	9.98550841	7.679E-007	1.88317072	2.39886451
	5.445000	9.98042561	9.98550881	7.700E-007	1.88303280	2.39875531
	5.735000	9.98042641	9.98550781	7.757E-007	1.88308012	2.39871716
	6.020000	9.98042741	9.98550721	7.937E-007	1.88308036	2.39879537
	6.305000	9.98042621	9.98550921	7.751E-007	1.88311386	2.39879537
	6.595000	9.98042661	9.98550801	7.787E-007	1.88313055	2.39885330
	6.885000	9.98042621	9.98550781	7.773E-007	1.88313329	2.39885879
	7.175000	9.98042581	9.98550861	7.612E-007	1.88314223	2.39889765
	7.460000	9.98042541	9.98550821	7.779E-007	1.88329315	2.39891624
	7.745000	9.98042621	9.98550721	8.012E-007	1.88332033	2.39893246
	8.045000	9.98042661	9.98550721	7.740E-007	1.88320470	2.39886093
	8.340000	9.98042681	9.98550781	7.830E-007	1.88308835	2.39880848
	8.625000	9.98042581	9.98550901	7.586E-007	1.88309932	2.39881015
	8.925000	9.98042621	9.98550921	7.778E-007	1.88305986	2.39880466
	9.215000	9.98042581	9.98550861	7.603E-007	1.88311279	2.39882517
	9.495000	9.98043001	9.98550141	2.942E-006	1.88302612	2.39963150
	9.780000	9.98042941	9.98550721	1.089E-006	1.88273942	2.39883780
	10.065000	9.98042801	9.98550741	7.920E-007	1.88311386	2.39879775
	10.355000	9.98042681	9.98550841	7.829E-007	1.88304722	2.39875126
	10.650000	9.98042521	9.98550921	7.734E-007	1.88296974	2.39874625
	10.945000	9.98042621	9.98550901	7.702E-007	1.88307762	2.39876819
	11.240000	9.98042641	9.98550881	7.748E-007	1.88304067	2.39877844
	11.530000	9.98042741	9.98550781	7.937E-007	1.88311708	2.39879155
	11.810000	9.98042621	9.98550941	7.722E-007	1.88305771	2.39875579
	12.095000	9.98042681	9.98550861	7.710E-007	1.88318467	2.39882660
	12.385000	9.98042481	9.98550961	7.538E-007	1.88309169	2.39876866
	12.675000	9.98042721	9.98550821	7.835E-007	1.88315189	2.39882207
	12.965000	9.98042601	9.98550941	7.571E-007	1.88306391	2.39878464
	13.250000	9.98042621	9.98550841	7.830E-007	1.88321292	2.39889121
	13.535000	9.98042601	9.98550861	7.671E-007	1.88326418	2.39885259
	13.835000	9.98042601	9.98550821	7.762E-007	1.88325620	2.39892364
	14.130000	9.98042581	9.98550841	7.707E-007	1.88323629	2.39887929
	14.425000	9.98042721	9.98550761	7.750E-007	1.88335228	2.39889216
	14.725000	9.98042521	9.98550901	7.631E-007	1.88321733	2.39891768
	15.010000	9.98042581	9.98550801	7.705E-007	1.88329434	2.39892268
	15.295000	9.98042561	9.98550841	7.848E-007	1.88323379	2.39895463
	15.585000	9.98042381	9.98548721	1.041E-006	1.88312268	2.39995956
	15.880000	9.98041701	9.98548701	1.147E-006	1.88308203	2.39998531
	16.175000	9.98041601	9.98548641	1.142E-006	1.88296306	2.39991474
	16.465000	9.98041681	9.98548581	1.157E-006	1.88286853	2.39993215
	16.745000	9.98041821	9.98548421	1.176E-006	1.88279080	2.39994359
	17.025000	9.98041921	9.98548361	1.162E-006	1.88266516	2.39986515
	17.315000	9.98041681	9.98548581	1.118E-006	1.88269579	2.39983058
	17.600000	9.98041781	9.98548541	1.128E-006	1.88261139	2.39983225
	17.885000	9.98041801	9.98548501	1.121E-006	1.88252091	2.39979911
	18.175000	9.98041821	9.98548441	1.122E-006	1.88253272	2.39986706
	18.465000	9.98041901	9.98548441	1.123E-006	1.88243902	2.39979410
	18.755000	9.98041841	9.98548401	1.139E-006	1.88244128	2.39982343
	19.040000	9.98041941	9.98548341	1.143E-006	1.88245654	2.39983845
	19.325000	9.98041861	9.98548381	1.132E-006	1.88245225	2.39987493
	19.615000	9.98041781	9.98548441	1.117E-006	1.88246346	2.39990640
	19.895000	9.98041881	9.98548341	1.138E-006	1.88247538	2.39978862
	20.175000	9.98041841	9.98548361	1.133E-006	1.88238788	2.39980960
	20.465000	9.98041801	9.98548421	1.138E-006	1.88249195	2.40009475
	20.755000	9.98041801	9.98548201	1.129E-006	1.88251960	2.40015292
	21.035000	9.98041981	9.98548021	1.694E-006	1.88250625	2.40016627
	21.315000	9.98041701	9.98548281	1.082E-006	1.88250411	2.40016174
	21.600000	9.98041781	9.98548221	1.090E-006	1.88245118	2.40013576
	21.885000	9.98041921	9.98550141	8.274E-007	1.88278377	2.39909482
	22.169000	9.98042381	9.98550001	7.872E-007	1.88286316	2.39913130
	22.439000	9.98042341	9.98550001	7.734E-007	1.88293684	2.39915109
	22.717000	9.98042481	9.98550021	7.937E-007	1.88286662	2.39913082
	23.000000	9.98042421	9.98550021	7.920E-007	1.88289177	2.39913535
	23.269500	9.98042401	9.98550101	7.868E-007	1.88289154	2.39905477
	23.548000	9.98042281	9.98550201	7.683E-007	1.88289237	2.39913058
	23.838000	9.98042341	9.98550161	7.803E-007	1.88284397	2.39901805
	24.128000	9.98042401	9.98550221	7.808E-007	1.88280308	2.39895368
	24.413000	9.98042441	9.98550241	7.856E-007	1.88287103	2.39900494
	24.698000	9.98042421	9.98550281	7.738E-007	1.88289428	2.39899421
	24.983000	9.98042361	9.98550341	7.754E-007	1.88291001	2.39898920
	25.263000	9.98042461	9.98550361	7.749E-007	1.88290620	2.39896917
	25.538000	9.98042381	9.98550461	7.652E-007	1.88289905	2.39891267
	25.828000	9.98042421	9.98550421	7.768E-007	1.88295949	2.39893603
	26.128000	9.98042401	9.98550521	7.612E-007	1.88287187	2.39887357
	26.413000	9.98042461	9.98550481	7.855E-007	1.88295853	2.39891624
	26.698000	9.98042421	9.98550541	7.710E-007	1.88304853	2.39888978
	26.978000	9.98042281	9.98550561	7.723E-007	1.88318992	2.39894795
	27.258000	9.98042341	9.98550581	7.800E-007	1.88311613	2.39886951
	27.548000	9.98042381	9.98550681	7.771E-007	1.88307595	2.39890099
	27.838000	9.98042461	9.98550561	7.919E-007	1.88323891	2.39889026
	28.118000	9.98042321	9.98550641	7.793E-007	1.88337731	2.39890575
	28.403000	9.98042241	9.98550701	7.701E-007	1.88333523	2.39878058
	28.698000	9.98042221	9.98550741	7.667E-007	1.88341284	2.39881682
	28.998000	9.98042121	9.98550721	7.624E-007	1.88344312	2.39885116
	29.293000	9.98042201	9.98550701	7.751E-007	1.88347256	2.39885616
	29.578000	9.98042201	9.98550741	7.714E-007	1.88349426	2.39882779
	29.878000	9.98042181	9.98550741	7.792E-007	1.88347280	2.39872575
	30.173000	9.98042181	9.98550741	7.825E-007	1.88345599	2.39874053
	30.458000	9.98042161	9.98550781	7.701E-007	1.88351214	2.39874530
	30.748000	9.98042181	9.98550741	7.761E-007	1.88349152	2.39873743
	31.043000	9.98042221	9.98550741	7.761E-007	1.88349628	2.39867640
	31.338000	9.98042041	9.98550841	7.650E-007	1.88351893	2.39877558
	31.628000	9.98042181	9.98550841	7.779E-007	1.88354337	2.39871097
	31.918000	9.98042221	9.98550821	7.768E-007	1.88351619	2.39864850
	32.218000	9.98042121	9.98550821	7.804E-007	1.88353431	2.39868283
	32.513000	9.98042161	9.98550821	7.825E-007	1.88347709	2.39866066
	32.798000	9.98042181	9.98550821	7.831E-007	1.88354218	2.39872026
	33.093000	9.98042041	9.98550861	7.642E-007	1.88357449	2.39874530
	33.388000	9.98042181	9.98550821	7.783E-007	1.88353121	2.39859319
	33.683000	9.98042161	9.98550821	7.771E-007	1.88344634	2.39862084
	33.968000	9.98042261	9.98550781	7.760E-007	1.88335931	2.39858198
	34.248000	9.98042181	9.98550921	7.707E-007	1.88333654	2.39864206
	34.548000	9.98042221	9.98550881	7.714E-007	1.88340819	2.39863467
	34.838000	9.98042141	9.98550941	7.613E-007	1.88340962	2.39860415
	35.118000	9.98042181	9.98550861	7.705E-007	1.88340282	2.39863110
	35.403000	9.98042281	9.98550841	7.855E-007	1.88340330	2.39860296
	35.688000	9.98042301	9.98550821	7.935E-007	1.88339269	2.39851785
	35.968000	9.98042321	9.98550821	7.929E-007	1.88338292	2.39858508
	36.258000	9.98042081	9.98550961	7.650E-007	1.88337135	2.39855099
	36.548000	9.98042281	9.98550821	7.790E-007	1.88338053	2.39856982
	36.828000	9.98042301	9.98550821	7.903E-007	1.88337374	2.39858937
	37.118000	9.98042301	9.98550821	7.813E-007	1.88339686	2.39858007
	37.418000	9.98042161	9.98550921	7.592E-007	1.88337708	2.39856362
	37.713000	9.98042121	9.98550981	7.583E-007	1.88327622	2.39851499
	37.993000	9.98042221	9.98550901	7.789E-007	1.88339043	2.39856172
	38.278000	9.98042141	9.98550921	7.715E-007	1.88335645	2.39857817
	38.568000	9.98042201	9.98550861	7.791E-007	1.88331223	2.39852309
	38.848000	9.98042241	9.98550861	7.702E-007	1.88337147	2.39855242
	39.128000	9.98042121	9.98550921	7.715E-007	1.88330626	2.39855528
	39.423000	9.98042121	9.98550941	7.673E-007	1.88332832	2.39852238
	39.718000	9.98042001	9.98550961	7.461E-007	1.88337994	2.39863205
	40.008000	9.98042061	9.98550981	7.574E-007	1.88338768	2.39863610
	40.298000	9.98042241	9.98550821	7.806E-007	1.88345075	2.39864874
	40.593000	9.98042141	9.98550941	7.729E-007	1.88336885	2.39862132
	40.888000	9.98042141	9.98550941	7.612E-007	1.88339591	2.39859843
	41.183000	9.98042041	9.98550981	7.456E-007	1.88335693	2.39855385
	41.478000	9.98042181	9.98550901	7.695E-007	1.88343251	2.39865088
	41.768000	9.98042261	9.98550821	7.787E-007	1.88340366	2.39861369
	42.058000	9.98042281	9.98550841	7.819E-007	1.88340175	2.39853954
	42.343000	9.98042121	9.98550881	7.623E-007	1.88341844	2.39861035
	42.638000	9.98042161	9.98550881	7.714E-007	1.88338041	2.39859295
	42.938000	9.98042121	9.98550921	7.547E-007	1.88336730	2.39855218
	43.228000	9.98042041	9.98550981	7.577E-007	1.88334262	2.39855218
	43.523000	9.98042121	9.98550941	7.746E-007	1.88330185	2.39851642
	43.823000	9.98042121	9.98550921	7.624E-007	1.88336778	2.39860535
	44.108000	9.98042181	9.98550881	7.768E-007	1.88336360	2.39853835
	44.398000	9.98042181	9.98550921	7.776E-007	1.88333106	2.39854264
	44.698000	9.98042101	9.98550961	7.644E-007	1.88333678	2.39853001
	44.983000	9.98042121	9.98550941	7.720E-007	1.88346732	2.39866924
	45.268000	9.98042181	9.98550901	7.795E-007	1.88348711	2.39864969
	45.558000	9.98042061	9.98550961	7.683E-007	1.88341296	2.39860415
	45.853000	9.98042081	9.98550941	7.614E-007	1.88339448	2.39865589
	46.143000	9.98042181	9.98550841	7.819E-007	1.88349247	2.39867616
	46.433000	9.98042101	9.98550921	7.635E-007	1.88340354	2.39862704
	46.728000	9.98042221	9.98550881	7.780E-007	1.88345313	2.39864993
	47.023000	9.98042161	9.98550901	7.803E-007	1.88343143	2.39862514
	47.308000	9.98042221	9.98550921	7.808E-007	1.88340366	2.39861202
	47.588000	9.98042181	9.98550881	7.692E-007	1.88342190	2.39861274
	47.878000	9.98042121	9.98550941	7.650E-007	1.88342035	2.39863658
	48.168000	9.98042101	9.98550961	7.588E-007	1.88344455	2.39863014
	48.458000	9.98042181	9.98550961	7.672E-007	1.88332391	2.39864731
	48.743000	9.98042121	9.98550941	7.681E-007	1.88351512	2.39867759
	49.038000	9.98042181	9.98550881	7.785E-007	1.88341963	2.39861846
	49.338000	9.98042261	9.98550861	7.824E-007	1.88345325	2.39862895
	49.623000	9.98042121	9.98550941	7.709E-007	1.88343406	2.39863110
	49.908000	9.98042121	9.98550941	7.794E-007	1.88345063	2.39864445
	50.208000	9.98042161	9.98550901	7.722E-007	1.88348043	2.39860678
	50.503000	9.98042161	9.98550921	7.706E-007	1.88343823	2.39866185
	50.788000	9.98042141	9.98550921	7.756E-007	1.88341904	2.39863706
	51.083000	9.98042121	9.98550961	7.632E-007	1.88346386	2.39864969
	51.378000	9.98042141	9.98550901	7.672E-007	1.88345587	2.39863706
	51.678000	9.98042081	9.98550981	7.570E-007	1.88343978	2.39862394
	51.973000	9.98042121	9.98550941	7.663E-007	1.88341868	2.39857292
	52.258000	9.98042241	9.98550881	7.813E-007	1.88345253	2.39862037
	52.548000	9.98042201	9.98550881	7.810E-007	1.88342798	2.39859509
	52.838000	9.98042061	9.98550941	7.540E-007	1.88343871	2.39863586
	53.133000	9.98042121	9.98550961	7.672E-007	1.88341892	2.39861107
	53.428000	9.98042161	9.98550901	7.755E-007	1.88346624	2.39866734
	53.718000	9.98042121	9.98550941	7.754E-007	1.88342321	2.39866233
	54.013000	9.98042121	9.98550881	7.750E-007	1.88342249	2.39857411
	54.308000	9.98042101	9.98550921	7.611E-007	1.88345420	2.39864182
	54.598000	9.98042141	9.98550941	7.697E-007	1.88346004	2.39863372
	54.888000	9.98042041	9.98550981	7.556E-007	1.88345969	2.39868093
	55.173000	9.98042201	9.98550881	7.796E-007	1.88345587	2.39866686
	55.458000	9.98042161	9.98550901	7.796E-007	1.88350070	2.39864326
	55.748000	9.98042081	9.98551001	7.579E-007	1.88344407	2.39864326
	56.043000	9.98042181	9.98550921	7.781E-007	1.88343060	2.39861774
	56.338000	9.98042201	9.98550841	7.831E-007	1.88348043	2.39865208
	56.633000	9.98042161	9.98550921	7.721E-007	1.88344717	2.39863276
	56.928000	9.98042081	9.98550961	7.538E-007	1.88347387	2.39867258
	57.218000	9.98042021	9.98551001	7.489E-007	1.88348007	2.39870286
	57.508000	9.98042121	9.98550921	7.699E-007	1.88339484	2.39857340
	57.798000	9.98042141	9.98550881	7.792E-007	1.88342249	2.39858532
	58.083000	9.98042161	9.98550881	7.699E-007	1.88339102	2.39857316
	58.368000	9.98042201	9.98550901	7.845E-007	1.88339984	2.39857650
	58.658000	9.98042261	9.98550881	7.840E-007	1.88340843	2.39856911
	58.948000	9.98042161	9.98550881	7.726E-007	1.88340175	2.39858961
	59.238000	9.98042141	9.98550921	7.719E-007	1.88339293	2.39854217
	59.523000	9.98042161	9.98550881	7.846E-007	1.88335884	2.39858818
	59.808000	9.98042181	9.98550921	7.772E-007	1.88342631	2.39856482
	60.098000	9.98042101	9.98550961	7.646E-007	1.88336980	2.39854932
	60.388000	9.98042161	9.98550961	7.838E-007	1.88340044	2.39863205
	60.673000	9.98042121	9.98550901	7.756E-007	1.88357949	2.39868546
	60.958000	9.98042141	9.98550861	7.805E-007	1.88368058	2.39865065
	61.248000	9.98042121	9.98550901	7.747E-007	1.88365281	2.39866972
	61.538000	9.98042161	9.98550921	7.953E-007	1.88364434	2.39862013
	61.828000	9.98042101	9.98550921	7.745E-007	1.88365614	2.39863110
	62.123000	9.98042081	9.98550941	7.763E-007	1.88362288	2.39867663
	62.418000	9.98042121	9.98550921	7.761E-007	1.88366854	2.39861608
	62.708000	9.98042041	9.98550981	7.659E-007	1.88364971	2.39867234
	63.003000	9.98042081	9.98550941	7.734E-007	1.88364792	2.39866161
	63.298000	9.98042061	9.98550961	7.670E-007	1.88365316	2.39861989
	63.588000	9.98042041	9.98550981	7.714E-007	1.88360453	2.39863253
	63.873000	9.98042141	9.98550841	7.863E-007	1.88365948	2.39868522
	64.168000	9.98042021	9.98551001	7.676E-007	1.88361871	2.39868021
	64.468000	9.98042161	9.98550881	7.821E-007	1.88370991	2.39870167
	64.753000	9.98042041	9.98550961	7.705E-007	1.88365304	2.39865541
	65.038000	9.98042041	9.98550941	7.600E-007	1.88367057	2.39869857
	65.338000	9.98042061	9.98550901	7.742E-007	1.88366663	2.39868402
	65.633000	9.98042101	9.98550921	7.768E-007	1.88365746	2.39865255
	65.918000	9.98042021	9.98550981	7.595E-007	1.88363922	2.39865446
	66.208000	9.98042041	9.98550961	7.620E-007	1.88365269	2.39868522
	66.498000	9.98042101	9.98550881	7.810E-007	1.88366783	2.39867568
	66.793000	9.98042041	9.98550941	7.698E-007	1.88368165	2.39865589
	67.088000	9.98042021	9.98550981	7.593E-007	1.88370240	2.39867139
	67.378000	9.98042001	9.98550981	7.562E-007	1.88366914	2.39863300
	67.663000	9.98042121	9.98550901	7.843E-007	1.88364446	2.39867330
	67.948000	9.98042081	9.98550941	7.580E-007	1.88370502	2.39869285
	68.248000	9.98042041	9.98550941	7.755E-007	1.88365555	2.39865088
	68.543000	9.98042121	9.98550901	7.774E-007	1.88368893	2.39865613
	68.828000	9.98042041	9.98550941	7.609E-007	1.88366354	2.39867902
	69.118000	9.98042041	9.98550961	7.645E-007	1.88368499	2.39866209
	69.418000	9.98042001	9.98550981	7.636E-007	1.88364542	2.39865327
	69.713000	9.98042141	9.98550881	7.878E-007	1.88368750	2.39870262
	69.998000	9.98042061	9.98550941	7.749E-007	1.88367212	2.39867616
	70.293000	9.98042101	9.98550881	7.826E-007	1.88360882	2.39862204
	70.588000	9.98041981	9.98550901	7.645E-007	1.88367426	2.39869237
	70.888000	9.98042021	9.98550921	7.726E-007	1.88368571	2.39870238
	71.183000	9.98042081	9.98550941	7.717E-007	1.88365114	2.39864349
	71.468000	9.98042121	9.98550901	7.780E-007	1.88367414	2.39866877
	71.758000	9.98042041	9.98550941	7.619E-007	1.88365877	2.39868402
	72.053000	9.98042061	9.98550901	7.711E-007	1.88368380	2.39870882
	72.348000	9.98042041	9.98550961	7.616E-007	1.88367057	2.39865589
	72.648000	9.98042121	9.98550901	7.787E-007	1.88364816	2.39866757
	72.943000	9.98042061	9.98550921	7.696E-007	1.88365662	2.39867830
	73.228000	9.98042041	9.98550941	7.752E-007	1.88365376	2.39866877
	73.518000	9.98042141	9.98550881	7.808E-007	1.88365686	2.39869738
	73.818000	9.98042041	9.98550961	7.647E-007	1.88363934	2.39862561
	74.113000	9.98042121	9.98550921	7.676E-007	1.88366652	2.39864635
	74.398000	9.98042081	9.98550941	7.747E-007	1.88360476	2.39860821
	74.688000	9.98042041	9.98550901	7.644E-007	1.88366139	2.39867115
	74.983000	9.98042081	9.98550941	7.661E-007	1.88365877	2.39863682
	75.278000	9.98042021	9.98550961	7.699E-007	1.88366008	2.39867496
	75.568000	9.98042021	9.98551001	7.629E-007	1.88360989	2.39862108
	75.863000	9.98042021	9.98550961	7.644E-007	1.88359976	2.39860177
	76.158000	9.98042181	9.98550861	7.844E-007	1.88366520	2.39866233
	76.448000	9.98042041	9.98550901	7.736E-007	1.88365698	2.39863896
	76.733000	9.98041981	9.98550981	7.564E-007	1.88356698	2.39855266
	77.028000	9.98042001	9.98550941	7.708E-007	1.88358772	2.39861727
	77.328000	9.98042181	9.98550861	7.792E-007	1.88358927	2.39855862
	77.613000	9.98042041	9.98550981	7.744E-007	1.88353872	2.39855170
	77.908000	9.98041941	9.98551001	7.548E-007	1.88364899	2.39865446
	78.203000	9.98042061	9.98550881	7.755E-007	1.88367856	2.39867783
	78.488000	9.98042021	9.98550921	7.627E-007	1.88352990	2.39849186
	78.788000	9.98042041	9.98550921	7.739E-007	1.88355339	2.39855099
	79.083000	9.98042021	9.98550921	7.677E-007	1.88355231	2.39854407
	79.368000	9.98042021	9.98550941	7.615E-007	1.88358474	2.39857101
	79.658000	9.98042001	9.98550981	7.619E-007	1.88351440	2.39853907
	79.948000	9.98042061	9.98550941	7.655E-007	1.88364422	2.39863253
	80.243000	9.98042041	9.98550941	7.718E-007	1.88361025	2.39862776
	80.538000	9.98042041	9.98550901	7.683E-007	1.88366115	2.39867020
	80.828000	9.98042041	9.98550961	7.723E-007	1.88356972	2.39859915
	81.118000	9.98042001	9.98551001	7.670E-007	1.88351214	2.39854646
	81.403000	9.98042061	9.98550921	7.689E-007	1.88363767	2.39869237
	81.688000	9.98042041	9.98550941	7.725E-007	1.88352942	2.39852881
	81.978000	9.98042121	9.98550921	7.693E-007	1.88345063	2.39859366
	82.268000	9.98042041	9.98551001	7.637E-007	1.88347924	2.39856911
	82.558000	9.98042041	9.98550941	7.648E-007	1.88346601	2.39856720
	82.843000	9.98042161	9.98550841	7.830E-007	1.88356411	2.39859128
	83.138000	9.98042141	9.98550921	7.767E-007	1.88349199	2.39859390
	83.438000	9.98042041	9.98550921	7.615E-007	1.88352442	2.39859200
	83.723000	9.98042001	9.98550981	7.548E-007	1.88354969	2.39858675
	84.008000	9.98042061	9.98550921	7.745E-007	1.88350666	2.39858747
	84.298000	9.98042081	9.98550901	7.765E-007	1.88353968	2.39857912
	84.588000	9.98042181	9.98550901	7.807E-007	1.88347733	2.39854980
	84.873000	9.98042101	9.98550921	7.736E-007	1.88347971	2.39856839
	85.168000	9.98042141	9.98550981	7.735E-007	1.88342011	2.39852047
	85.468000	9.98042161	9.98550921	7.897E-007	1.88344324	2.39848089
	85.753000	9.98042001	9.98550981	7.719E-007	1.88352323	2.39862466
	86.048000	9.98042021	9.98550901	7.727E-007	1.88350022	2.39864206
	86.348000	9.98042121	9.98551001	7.680E-007	1.88352907	2.39853501
	86.643000	9.98042061	9.98550941	7.621E-007	1.88352263	2.39860678
	86.938000	9.98042021	9.98550981	7.602E-007	1.88349950	2.39857864
	87.228000	9.98042021	9.98551001	7.559E-007	1.88349426	2.39857650
	87.513000	9.98042101	9.98550801	7.893E-007	1.88361406	2.39867949
	87.798000	9.98042101	9.98550921	7.714E-007	1.88354540	2.39864731
	88.088000	9.98042121	9.98550881	7.840E-007	1.88351774	2.39863276
	88.378000	9.98042041	9.98550981	7.639E-007	1.88353097	2.39860034
	88.668000	9.98042061	9.98550901	7.755E-007	1.88354683	2.39865470
	88.953000	9.98042121	9.98550981	7.677E-007	1.88350451	2.39858460
	89.238000	9.98042021	9.98551021	7.604E-007	1.88345635	2.39855552
	89.528000	9.98042121	9.98550981	7.644E-007	1.88342369	2.39857578
	89.823000	9.98042081	9.98550901	7.755E-007	1.88349843	2.39858079
	90.118000	9.98042081	9.98550961	7.676E-007	1.88344550	2.39859104
	90.408000	9.98042141	9.98550921	7.723E-007	1.88344944	2.39856505
	90.703000	9.98042101	9.98550961	7.656E-007	1.88345766	2.39853024
	90.998000	9.98042061	9.98550941	7.660E-007	1.88346088	2.39850569
	91.288000	9.98042061	9.98550941	7.854E-007	1.88348794	2.39858580
	91.578000	9.98042061	9.98550961	7.581E-007	1.88353109	2.39861608
	91.868000	9.98042021	9.98550921	7.665E-007	1.88352299	2.39864159
	92.153000	9.98042101	9.98550941	7.729E-007	1.88338876	2.39849997
	92.438000	9.98042081	9.98550941	7.664E-007	1.88338256	2.39855623
	92.728000	9.98042061	9.98550961	7.616E-007	1.88336635	2.39854145
	93.023000	9.98042101	9.98550941	7.705E-007	1.88338673	2.39854431
	93.308000	9.98042181	9.98550841	7.875E-007	1.88345456	2.39858747
	93.588000	9.98042121	9.98550881	7.760E-007	1.88347805	2.39865494
	93.878000	9.98042161	9.98550881	7.879E-007	1.88348186	2.39861679
	94.173000	9.98042121	9.98550901	7.774E-007	1.88343310	2.39858270
	94.468000	9.98042181	9.98550841	7.768E-007	1.88345373	2.39863276
	94.758000	9.98042081	9.98550961	7.705E-007	1.88340390	2.39858842
	95.048000	9.98042121	9.98550921	7.761E-007	1.88342714	2.39863038
	95.343000	9.98042121	9.98550921	7.707E-007	1.88341534	2.39862299
	95.638000	9.98042041	9.98550981	7.631E-007	1.88341963	2.39866233
	95.928000	9.98042061	9.98550901	7.673E-007	1.88337481	2.39861846
	96.213000	9.98042101	9.98550901	7.687E-007	1.88345134	2.39863658
	96.498000	9.98042141	9.98550881	7.817E-007	1.88342583	2.39864492
	96.798000	9.98042061	9.98550921	7.702E-007	1.88342094	2.39862776
	97.093000	9.98042061	9.98550901	7.806E-007	1.88333678	2.39863896
	97.378000	9.98042081	9.98550921	7.699E-007	1.88340735	2.39865422
	97.678000	9.98042061	9.98550921	7.725E-007	1.88340235	2.39864087
	97.973000	9.98042101	9.98550961	7.728E-007	1.88343775	2.39859939
	98.258000	9.98042121	9.98550861	7.700E-007	1.88343000	2.39866638
	98.548000	9.98042121	9.98550921	7.725E-007	1.88346982	2.39865470
	98.838000	9.98042061	9.98550901	7.634E-007	1.88343155	2.39865994
	99.133000	9.98042081	9.98550981	7.617E-007	1.88329697	2.39856791
	99.428000	9.98042121	9.98550841	7.829E-007	1.88362098	2.39872217
	99.718000	9.98042161	9.98550861	7.854E-007	1.88358045	2.39868355
	100.008000	9.98042061	9.98550861	7.779E-007	1.88371837	2.39873815
	100.293000	9.98042021	9.98550921	7.696E-007	1.88369322	2.39875150
	100.578000	9.98042141	9.98550861	7.874E-007	1.88373494	2.39873266
	100.868000	9.98042001	9.98550941	7.613E-007	1.88358939	2.39867330
	101.158000	9.98042081	9.98550861	7.712E-007	1.88357949	2.39862442
	101.448000	9.98042101	9.98550921	7.696E-007	1.88351047	2.39857793
	101.733000	9.98042121	9.98550901	7.691E-007	1.88352871	2.39861941
	102.018000	9.98042081	9.98550901	7.643E-007	1.88352048	2.39862180
	102.308000	9.98042201	9.98550881	7.855E-007	1.88347602	2.39858580
	102.598000	9.98042121	9.98550921	7.759E-007	1.88349724	2.39860654
	102.883000	9.98042181	9.98550881	7.836E-007	1.88347626	2.39856243
	103.168000	9.98042081	9.98550961	7.733E-007	1.88343573	2.39858532
	103.448000	9.98042201	9.98550861	7.833E-007	1.88349962	2.39860034
	103.728000	9.98042181	9.98550861	7.760E-007	1.88347185	2.39857149
	104.018000	9.98042161	9.98550881	7.839E-007	1.88347268	2.39855981
	104.308000	9.98042161	9.98550921	7.736E-007	1.88339865	2.39850426
	104.598000	9.98042101	9.98551021	7.625E-007	1.88344121	2.39852118
	104.893000	9.98042161	9.98550941	7.664E-007	1.88347328	2.39858770
	105.188000	9.98042121	9.98550901	7.627E-007	1.88345027	2.39852452
	105.478000	9.98042081	9.98550941	7.687E-007	1.88339782	2.39854908
	105.763000	9.98042161	9.98550881	7.784E-007	1.88345182	2.39860225
	106.048000	9.98042121	9.98550961	7.736E-007	1.88345814	2.39861345
	106.338000	9.98042101	9.98550921	7.692E-007	1.88344252	2.39858675
	106.628000	9.98042081	9.98550961	7.620E-007	1.88345993	2.39856768
	106.918000	9.98042141	9.98550861	7.759E-007	1.88345361	2.39857793
	107.203000	9.98042221	9.98550861	7.883E-007	1.88348401	2.39862084
	107.483000	9.98042121	9.98550961	7.638E-007	1.88347077	2.39862561
	107.763000	9.98042181	9.98550921	7.741E-007	1.88345468	2.39859962
	108.048000	9.98042141	9.98550921	7.729E-007	1.88349056	2.39863634
	108.338000	9.98042161	9.98550861	7.868E-007	1.88346100	2.39863634
	108.618000	9.98042161	9.98550941	7.718E-007	1.88349032	2.39853239
	108.898000	9.98042181	9.98550901	7.820E-007	1.88340580	2.39853311
	109.188000	9.98042181	9.98550881	7.827E-007	1.88337040	2.39856434
	109.468000	9.98042221	9.98550881	7.923E-007	1.88338518	2.39851117
	109.753000	9.98042081	9.98550961	7.684E-007	1.88337219	2.39852595
	110.048000	9.98042101	9.98550921	7.686E-007	1.88345504	2.39859009
	110.338000	9.98042101	9.98550941	7.688E-007	1.88341296	2.39855814
	110.618000	9.98042221	9.98550881	7.908E-007	1.88348722	2.39861751
	110.898000	9.98042121	9.98550901	7.708E-007	1.88343000	2.39862013
	111.188000	9.98042021	9.98550981	7.615E-007	1.88342929	2.39863539
	111.473000	9.98042021	9.98550861	7.738E-007	1.88361621	2.39871073
	111.753000	9.98042161	9.98550801	7.976E-007	1.88369215	2.39870548
	112.033000	9.98042021	9.98550961	7.646E-007	1.88363242	2.39861989
	112.328000	9.98042041	9.98550901	7.733E-007	1.88360584	2.39860320
	112.628000	9.98042041	9.98550901	7.735E-007	1.88360167	2.39863896
	112.913000	9.98042041	9.98550921	7.623E-007	1.88365495	2.39864707
	113.198000	9.98042021	9.98550881	7.784E-007	1.88364470	2.39861560
	113.488000	9.98042021	9.98550921	7.692E-007	1.88355076	2.39855504
	113.783000	9.98042061	9.98550881	7.800E-007	1.88358319	2.39856672
	114.078000	9.98041981	9.98550921	7.647E-007	1.88355136	2.39852047
	114.378000	9.98041961	9.98550961	7.548E-007	1.88358021	2.39855480
	114.673000	9.98042001	9.98550921	7.622E-007	1.88355803	2.39857244
	114.958000	9.98042021	9.98550901	7.795E-007	1.88358104	2.39860582
	115.248000	9.98042041	9.98550901	7.716E-007	1.88357365	2.39853120
	115.543000	9.98042041	9.98550861	7.904E-007	1.88360858	2.39859009
	115.838000	9.98042101	9.98550821	7.883E-007	1.88364923	2.39865375
	116.133000	9.98041981	9.98550841	7.654E-007	1.88367677	2.39862990
	116.428000	9.98041981	9.98550921	7.584E-007	1.88358152	2.39855289
	116.718000	9.98041981	9.98550981	7.671E-007	1.88355803	2.39861703
	117.018000	9.98042001	9.98550941	7.679E-007	1.88355899	2.39857435
	117.313000	9.98042041	9.98550881	7.665E-007	1.88359153	2.39856267
	117.598000	9.98041941	9.98550941	7.624E-007	1.88358080	2.39856339
	117.888000	9.98042061	9.98550841	7.784E-007	1.88360631	2.39857292
	118.178000	9.98041921	9.98550961	7.515E-007	1.88366985	2.39865518
	118.473000	9.98042001	9.98550921	7.747E-007	1.88365793	2.39866376
	118.768000	9.98042061	9.98550901	7.791E-007	1.88365757	2.39864254
	119.058000	9.98042061	9.98550881	7.698E-007	1.88364184	2.39867067
	119.353000	9.98042021	9.98550921	7.610E-007	1.88366675	2.39868212
	119.648000	9.98042061	9.98550861	7.759E-007	1.88368833	2.39865804
	119.938000	9.98042001	9.98550881	7.614E-007	1.88370466	2.39869070
	120.233000	9.98042041	9.98550901	7.768E-007	1.88366783	2.39866471
	120.528000	9.98042081	9.98550821	7.895E-007	1.88369989	2.39864969
	120.813000	9.98042061	9.98550901	7.756E-007	1.88362265	2.39860368
	121.098000	9.98041941	9.98550981	7.505E-007	1.88358080	2.39867377
	121.398000	9.98042001	9.98550861	7.699E-007	1.88367414	2.39869571
	121.693000	9.98042061	9.98550921	7.708E-007	1.88364863	2.39865851
	121.988000	9.98041981	9.98550901	7.622E-007	1.88368917	2.39866924
	122.288000	9.98042101	9.98550801	7.921E-007	1.88362384	2.39859509
	122.573000	9.98041981	9.98550881	7.727E-007	1.88366044	2.39864922
	122.868000	9.98041941	9.98550961	7.577E-007	1.88358092	2.39857697
	123.168000	9.98042021	9.98550901	7.630E-007	1.88367665	2.39865112
	123.453000	9.98042041	9.98550861	7.803E-007	1.88362563	2.39863896
	123.738000	9.98042021	9.98550881	7.755E-007	1.88367879	2.39869356
	124.038000	9.98042021	9.98550881	7.724E-007	1.88367677	2.39870763
	124.333000	9.98041941	9.98550961	7.628E-007	1.88363039	2.39866734
	124.628000	9.98042041	9.98550901	7.798E-007	1.88362849	2.39863491
	124.928000	9.98041861	9.98550961	7.573E-007	1.88368452	2.39865685
	125.213000	9.98042101	9.98550861	7.806E-007	1.88362575	2.39859939
	125.498000	9.98042081	9.98550861	7.792E-007	1.88357043	2.39858580
	125.798000	9.98042041	9.98550901	7.701E-007	1.88356578	2.39858627
	126.093000	9.98041961	9.98550941	7.652E-007	1.88357973	2.39856434
	126.378000	9.98042021	9.98550881	7.778E-007	1.88361561	2.39859557
	126.673000	9.98042021	9.98550981	7.556E-007	1.88358700	2.39855623
	126.968000	9.98042041	9.98550901	7.764E-007	1.88366067	2.39865255
	127.258000	9.98042001	9.98550921	7.692E-007	1.88365841	2.39864445
	127.553000	9.98042041	9.98550921	7.742E-007	1.88363016	2.39865780
	127.848000	9.98042081	9.98550921	7.729E-007	1.88357961	2.39862132
	128.138000	9.98042041	9.98550861	7.702E-007	1.88362992	2.39860988
	128.428000	9.98042001	9.98550881	7.716E-007	1.88359272	2.39862132
	128.723000	9.98041961	9.98550921	7.575E-007	1.88366950	2.39866447
	129.023000	9.98042061	9.98550861	7.838E-007	1.88362348	2.39859104
	129.313000	9.98042021	9.98550901	7.686E-007	1.88364351	2.39862204
	129.598000	9.98042021	9.98550901	7.701E-007	1.88367319	2.39868951
	129.893000	9.98042021	9.98550901	7.700E-007	1.88366938	2.39870286
	130.188000	9.98042041	9.98550821	7.812E-007	1.88363731	2.39871383
	130.478000	9.98042021	9.98550921	7.654E-007	1.88366783	2.39870048
	130.763000	9.98042041	9.98550881	7.702E-007	1.88366687	2.39867878
	131.048000	9.98042101	9.98550861	7.853E-007	1.88369966	2.39873266
	131.338000	9.98042001	9.98550841	7.704E-007	1.88368654	2.39869928
	131.633000	9.98042001	9.98550901	7.695E-007	1.88369834	2.39873123
	131.928000	9.98042061	9.98550841	7.833E-007	1.88368082	2.39863515
	132.223000	9.98042021	9.98550881	7.670E-007	1.88362551	2.39861369
	132.513000	9.98042001	9.98550861	7.775E-007	1.88365209	2.39864135
	132.803000	9.98042001	9.98550881	7.836E-007	1.88355756	2.39859247
	133.098000	9.98041981	9.98550941	7.702E-007	1.88358963	2.39860082
	133.388000	9.98042001	9.98550881	7.682E-007	1.88357341	2.39860582
	133.673000	9.98041981	9.98550921	7.591E-007	1.88363552	2.39861846
	133.968000	9.98042061	9.98550821	7.764E-007	1.88367379	2.39867306
	134.268000	9.98042021	9.98550861	7.730E-007	1.88363862	2.39865422
	134.563000	9.98041941	9.98550901	7.621E-007	1.88366961	2.39864945
	134.858000	9.98042061	9.98550881	7.787E-007	1.88360465	2.39864326
	135.148000	9.98042041	9.98550861	7.711E-007	1.88367331	2.39864016
	135.443000	9.98042001	9.98550901	7.660E-007	1.88361561	2.39861608
	135.738000	9.98042081	9.98550781	7.873E-007	1.88364685	2.39864731
	136.033000	9.98042021	9.98550881	7.712E-007	1.88364518	2.39864492
	136.328000	9.98041941	9.98550941	7.559E-007	1.88362300	2.39862943
	136.623000	9.98042041	9.98550861	7.724E-007	1.88363791	2.39864755
	136.928000	9.98041981	9.98550901	7.615E-007	1.88367152	2.39870334
	137.228000	9.98042001	9.98550901	7.714E-007	1.88362396	2.39862037
	137.513000	9.98042041	9.98550861	7.688E-007	1.88368452	2.39866924
	137.813000	9.98042001	9.98550901	7.678E-007	1.88367343	2.39867306
	138.113000	9.98042041	9.98550861	7.738E-007	1.88365722	2.39863706
	138.393000	9.98041981	9.98550901	7.677E-007	1.88365901	2.39866495
	138.678000	9.98042021	9.98550861	7.702E-007	1.88365555	2.39866328
	138.973000	9.98042021	9.98550901	7.691E-007	1.88360786	2.39862823
	139.268000	9.98042001	9.98550921	7.617E-007	1.88362122	2.39860320
	139.558000	9.98042021	9.98550881	7.792E-007	1.88365710	2.39862823
	139.853000	9.98042001	9.98550861	7.722E-007	1.88366055	2.39866686
	140.148000	9.98041961	9.98550921	7.657E-007	1.88366914	2.39868474
	140.438000	9.98042021	9.98550841	7.721E-007	1.88363302	2.39859962
	140.728000	9.98042021	9.98550861	7.688E-007	1.88361681	2.39865875
	141.023000	9.98042041	9.98550821	7.742E-007	1.88359606	2.39854360
	141.318000	9.98042021	9.98550901	7.760E-007	1.88354492	2.39861250
	141.608000	9.98041981	9.98550861	7.654E-007	1.88366842	2.39863920
	141.898000	9.98042041	9.98550841	7.711E-007	1.88366282	2.39862657
	142.183000	9.98042021	9.98550861	7.696E-007	1.88364995	2.39864159
	142.478000	9.98042021	9.98550861	7.741E-007	1.88357973	2.39862156
	142.778000	9.98042021	9.98550881	7.666E-007	1.88364470	2.39865112
	143.063000	9.98041941	9.98550881	7.630E-007	1.88361788	2.39862370
	143.348000	9.98041961	9.98550921	7.591E-007	1.88358974	2.39865375
	143.648000	9.98042041	9.98550841	7.788E-007	1.88362956	2.39867043
	143.943000	9.98041981	9.98550881	7.650E-007	1.88366318	2.39870000
	144.228000	9.98041981	9.98550861	7.631E-007	1.88365185	2.39866543
	144.518000	9.98042021	9.98550881	7.706E-007	1.88363290	2.39868164
	144.808000	9.98041961	9.98550901	7.713E-007	1.88363969	2.39863563
	145.103000	9.98042021	9.98550861	7.697E-007	1.88355112	2.39854050
	145.398000	9.98041961	9.98550901	7.685E-007	1.88358319	2.39859581
	145.693000	9.98042021	9.98550821	7.769E-007	1.88358152	2.39861393
	145.988000	9.98042041	9.98550841	7.686E-007	1.88356125	2.39858055
	146.278000	9.98042021	9.98550821	7.726E-007	1.88359213	2.39862871
	146.568000	9.98041961	9.98550901	7.616E-007	1.88353455	2.39854455
	146.863000	9.98042041	9.98550861	7.726E-007	1.88352811	2.39855409
	147.158000	9.98042041	9.98550861	7.721E-007	1.88354194	2.39857912
	147.453000	9.98042021	9.98550741	7.715E-007	1.88354695	2.39861655
	147.748000	9.98042001	9.98550841	7.711E-007	1.88361549	2.39860511
	148.038000	9.98042001	9.98550881	7.684E-007	1.88359177	2.39856720
	148.333000	9.98042021	9.98550881	7.727E-007	1.88359439	2.39861631
	148.628000	9.98042041	9.98550881	7.755E-007	1.88360357	2.39859724
	148.918000	9.98042021	9.98550861	7.769E-007	1.88357639	2.39862084
	149.208000	9.98041981	9.98550901	7.724E-007	1.88357365	2.39859200
	149.503000	9.98041981	9.98550861	7.719E-007	1.88365638	2.39863610
	149.798000	9.98042001	9.98550821	7.708E-007	1.88353300	2.39852071
	150.088000	9.98042001	9.98550901	7.650E-007	1.88349926	2.39852190
	150.373000	9.98042041	9.98550841	7.796E-007	1.88355851	2.39857030
	150.658000	9.98042021	9.98550781	7.820E-007	1.88357663	2.39855790
	150.953000	9.98042021	9.98550901	7.713E-007	1.88357687	2.39861608
	151.248000	9.98042001	9.98550841	7.681E-007	1.88360906	2.39865470
	151.548000	9.98041961	9.98550881	7.539E-007	1.88360870	2.39864302
	151.843000	9.98041961	9.98550881	7.583E-007	1.88360357	2.39862752
	152.138000	9.98042021	9.98550821	7.767E-007	1.88356912	2.39861012
	152.438000	9.98042081	9.98550801	7.801E-007	1.88360929	2.39862823
	152.723000	9.98041941	9.98550921	7.649E-007	1.88359296	2.39864945
	153.018000	9.98041941	9.98550881	7.702E-007	1.88357818	2.39860678
	153.318000	9.98041941	9.98550801	7.689E-007	1.88361597	2.39859509
	153.603000	9.98041961	9.98550921	7.628E-007	1.88353038	2.39855385
	153.888000	9.98041981	9.98550901	7.559E-007	1.88354993	2.39855838
	154.178000	9.98042061	9.98550801	7.793E-007	1.88347912	2.39849758
	154.473000	9.98042001	9.98550921	7.666E-007	1.88353932	2.39854598
	154.768000	9.98041981	9.98550861	7.637E-007	1.88361430	2.39863467
	155.058000	9.98042021	9.98550841	7.728E-007	1.88358808	2.39862108
	155.353000	9.98042021	9.98550861	7.695E-007	1.88355339	2.39854908
	155.648000	9.98042061	9.98550801	7.799E-007	1.88352644	2.39852142
	155.938000	9.98042001	9.98550841	7.691E-007	1.88353288	2.39854145
	156.233000	9.98042041	9.98550801	7.841E-007	1.88356566	2.39862418
	156.528000	9.98042101	9.98550801	7.851E-007	1.88354921	2.39858317
	156.823000	9.98042021	9.98550821	7.721E-007	1.88355255	2.39856267
	157.118000	9.98042021	9.98550841	7.847E-007	1.88354516	2.39856887
	157.418000	9.98042061	9.98550841	7.694E-007	1.88362014	2.39859414
	157.713000	9.98041981	9.98550861	7.601E-007	1.88355243	2.39853072
	157.998000	9.98041961	9.98550881	7.586E-007	1.88351405	2.39855289
	158.298000	9.98042001	9.98550861	7.664E-007	1.88356411	2.39858747
	158.593000	9.98042081	9.98550801	7.889E-007	1.88353360	2.39850926
	158.878000	9.98042021	9.98550861	7.726E-007	1.88354504	2.39856744
	159.168000	9.98042061	9.98550841	7.842E-007	1.88350463	2.39853382
	159.458000	9.98041981	9.98550861	7.715E-007	1.88351417	2.39855719
	159.753000	9.98041901	9.98550941	7.538E-007	1.88356590	2.39858174
	160.048000	9.98042001	9.98550841	7.740E-007	1.88352275	2.39854646
	160.338000	9.98041941	9.98550901	7.633E-007	1.88353443	2.39862776
	160.628000	9.98042021	9.98550861	7.718E-007	1.88361883	2.39866138
	160.923000	9.98042061	9.98550881	7.799E-007	1.88360059	2.39861441
	161.218000	9.98042081	9.98550801	7.761E-007	1.88361394	2.39866209
	161.508000	9.98041901	9.98550901	7.569E-007	1.88362491	2.39869523
	161.793000	9.98042081	9.98550821	7.710E-007	1.88353777	2.39854169
	162.088000	9.98042001	9.98550841	7.697E-007	1.88350463	2.39855623
	162.383000	9.98042041	9.98550841	7.658E-007	1.88357151	2.39856219
	162.668000	9.98042081	9.98550781	7.775E-007	1.88355207	2.39860415
	162.958000	9.98042021	9.98550841	7.661E-007	1.88351834	2.39856267
	163.248000	9.98042061	9.98550781	7.838E-007	1.88351202	2.39855909
	163.538000	9.98042041	9.98550861	7.713E-007	1.88351429	2.39854527
	163.833000	9.98042121	9.98550781	7.862E-007	1.88353574	2.39854717
	164.118000	9.98041921	9.98550901	7.570E-007	1.88354027	2.39855909
	164.408000	9.98042081	9.98550741	7.869E-007	1.88356173	2.39860821
	164.703000	9.98042001	9.98550861	7.726E-007	1.88352990	2.39857173
	164.988000	9.98042001	9.98550881	7.715E-007	1.88349390	2.39857388
	165.288000	9.98042061	9.98550861	7.786E-007	1.88349271	2.39856839
	165.583000	9.98042021	9.98550841	7.694E-007	1.88348413	2.39854717
	165.868000	9.98041941	9.98550961	7.596E-007	1.88346696	2.39858890
	166.168000	9.98042001	9.98550841	7.609E-007	1.88358474	2.39864540
	166.463000	9.98042061	9.98550861	7.734E-007	1.88354433	2.39860678
	166.748000	9.98042021	9.98550881	7.649E-007	1.88343537	2.39850760
	167.048000	9.98042041	9.98550821	7.770E-007	1.88346839	2.39853907
	167.343000	9.98041961	9.98550861	7.708E-007	1.88348305	2.39861727
	167.628000	9.98042041	9.98550861	7.642E-007	1.88355780	2.39861774
	167.928000	9.98042101	9.98550841	7.766E-007	1.88349581	2.39851236
	168.228000	9.98042081	9.98550781	7.766E-007	1.88346195	2.39856958
	168.513000	9.98042021	9.98550821	7.708E-007	1.88347232	2.39856458
	168.803000	9.98041961	9.98550901	7.598E-007	1.88346767	2.39857626
	169.098000	9.98042001	9.98550861	7.667E-007	1.88350737	2.39861107
	169.388000	9.98042001	9.98550841	7.625E-007	1.88348424	2.39855242
	169.683000	9.98041961	9.98550861	7.625E-007	1.88348377	2.39853287
	169.978000	9.98042061	9.98550841	7.753E-007	1.88346016	2.39850593
	170.268000	9.98042081	9.98550821	7.707E-007	1.88351750	2.39863920
	170.563000	9.98042041	9.98550801	7.732E-007	1.88353491	2.39862442
	170.858000	9.98041981	9.98550841	7.650E-007	1.88345540	2.39854193
	171.148000	9.98042621	9.98549481	1.087E-006	1.88310158	2.39949989
	171.433000	9.98041981	9.98550861	8.344E-007	1.88345051	2.39855361
	171.723000	9.98041981	9.98550801	7.754E-007	1.88352311	2.39860940
	172.013000	9.98042041	9.98550781	7.858E-007	1.88356256	2.39861250
	172.298000	9.98041961	9.98550861	7.649E-007	1.88359165	2.39859819
	172.588000	9.98052941	9.98546681	2.073E-004	1.88234293	2.40426683
	172.878000	9.98041681	9.98549241	1.135E-006	1.88396299	2.39994907
	173.168000	9.98041721	9.98549261	1.134E-006	1.88345826	2.39929342
	173.453000	9.98041601	9.98549341	1.125E-006	1.88314760	2.39926767
	173.738000	9.98041701	9.98549321	1.136E-006	1.88322341	2.39927530
	174.038000	9.98041621	9.98549381	1.129E-006	1.88314509	2.39923859
	174.333000	9.98041721	9.98549241	1.145E-006	1.88322890	2.39929414
	174.623000	9.98041541	9.98549381	1.117E-006	1.88322639	2.39928913
	174.913000	9.98041641	9.98549301	1.123E-006	1.88326645	2.39933920
	175.198000	9.98041621	9.98549321	1.130E-006	1.88324821	2.39931130
	175.478000	9.98041681	9.98549241	1.138E-006	1.88321483	2.39929867
	175.758000	9.98041801	9.98549221	1.158E-006	1.88317180	2.39922833
	176.048000	9.98041721	9.98549281	1.142E-006	1.88316381	2.39921856
	176.333000	9.98041681	9.98549341	1.128E-006	1.88320923	2.39922023
	176.613000	9.98041681	9.98549361	1.126E-006	1.88317013	2.39922237
	176.893000	9.98041741	9.98549241	1.139E-006	1.88320184	2.39920831
	177.168000	9.98041721	9.98549301	1.134E-006	1.88313639	2.39927983
	177.448000	9.98041621	9.98549361	1.126E-006	1.88326049	2.39930034
	177.738000	9.98041621	9.98549381	1.135E-006	1.88316298	2.39917588
	178.028000	9.98041641	9.98549361	1.129E-006	1.88315487	2.39922261
	178.308000	9.98041661	9.98549321	1.124E-006	1.88318944	2.39921975
	178.588000	9.98041661	9.98549341	1.120E-006	1.88315678	2.39920664
	178.878000	9.98041621	9.98549381	1.123E-006	1.88325107	2.39927745
	179.158000	9.98041841	9.98549281	1.144E-006	1.88326883	2.39931488
	179.443000	9.98041801	9.98549281	1.148E-006	1.88327420	2.39930320
	179.728000	9.98041701	9.98549381	1.132E-006	1.88324881	2.39930511
	180.008000	9.98041681	9.98549441	1.114E-006	1.88324296	2.39930749
	180.288000	9.98041761	9.98549361	1.134E-006	1.88321006	2.39932323
	180.568000	9.98041801	9.98549361	1.134E-006	1.88322186	2.39922690
	180.848000	9.98041781	9.98549381	1.136E-006	1.88323140	2.39929128
	181.128000	9.98041801	9.98549381	1.147E-006	1.88322282	2.39925909
	181.408000	9.98041861	9.98549321	1.146E-006	1.88324618	2.39930797
	181.688000	9.98041841	9.98549401	1.130E-006	1.88319063	2.39926243
	181.968000	9.98041941	9.98549401	1.139E-006	1.88325191	2.39929819
	182.248000	9.98041861	9.98549481	1.135E-006	1.88317084	2.39916205
	182.528000	9.98041841	9.98549501	1.125E-006	1.88315737	2.39916420
	182.808000	9.98041881	9.98549481	1.138E-006	1.88311589	2.39920259
	183.098000	9.98041781	9.98549621	1.113E-006	1.88308311	2.39915872
	183.388000	9.98041881	9.98549581	1.130E-006	1.88306367	2.39917850
	183.668000	9.98041941	9.98549601	1.137E-006	1.88313043	2.39922690
	183.948000	9.98041881	9.98549581	1.127E-006	1.88318849	2.39921546
	184.233000	9.98041921	9.98549541	1.135E-006	1.88320076	2.39923716
	184.513000	9.98041861	9.98549561	1.129E-006	1.88323784	2.39923811
	184.793000	9.98041821	9.98549521	1.116E-006	1.88320100	2.39917254
	185.073000	9.98041821	9.98549481	1.140E-006	1.88319027	2.39912915
	185.353000	9.98041561	9.98549521	1.110E-006	1.88324726	2.39920425
	185.638000	9.98041721	9.98549361	1.137E-006	1.88324952	2.39915299
	185.918000	9.98041741	9.98549301	1.152E-006	1.88322842	2.39911675
	186.198000	9.98041541	9.98549341	1.134E-006	1.88322639	2.39908433
	186.488000	9.98041501	9.98549261	1.122E-006	1.88326764	2.39908171
	186.768000	9.98041501	9.98549201	1.135E-006	1.88321388	2.39911270
	187.048000	9.98041401	9.98549261	1.122E-006	1.88326383	2.39912248
	187.328000	9.98041381	9.98549141	1.134E-006	1.88329136	2.39913917
	187.608000	9.98041341	9.98549161	1.129E-006	1.88332367	2.39901757
	187.888000	9.98041281	9.98549041	1.130E-006	1.88328063	2.39905071
	188.168000	9.98041221	9.98549081	1.136E-006	1.88328516	2.39908719
	188.448000	9.98041181	9.98549041	1.129E-006	1.88328087	2.39906144
	188.728000	9.98041101	9.98549001	1.124E-006	1.88329148	2.39910102
	189.023000	9.98040981	9.98548981	1.127E-006	1.88337374	2.39911246
	189.303000	9.98041061	9.98548861	1.142E-006	1.88331974	2.39912915
	189.578000	9.98040961	9.98548921	1.135E-006	1.88338566	2.39912677
	189.863000	9.98040981	9.98548801	1.136E-006	1.88336623	2.39906287
	190.143000	9.98040841	9.98548841	1.121E-006	1.88330007	2.39905286
	190.423000	9.98040881	9.98548741	1.143E-006	1.88330436	2.39905024
	190.708000	9.98040821	9.98548801	1.124E-006	1.88332534	2.39904046
	190.998000	9.98040761	9.98548721	1.119E-006	1.88332975	2.39900160
	191.278000	9.98040821	9.98548681	1.144E-006	1.88332188	2.39900875
	191.558000	9.98040761	9.98548681	1.132E-006	1.88340259	2.39907885
	191.848000	9.98040801	9.98548661	1.142E-006	1.88328087	2.39900041
	192.133000	9.98040721	9.98548681	1.120E-006	1.88331354	2.39907432
	192.413000	9.98040721	9.98548661	1.133E-006	1.88337719	2.39904022
	192.688000	9.98040701	9.98548661	1.120E-006	1.88329029	2.39898682
	192.968000	9.98040681	9.98548661	1.142E-006	1.88328195	2.39898086
	193.248000	9.98040721	9.98548681	1.142E-006	1.88333523	2.39905047
	193.528000	9.98040621	9.98548661	1.115E-006	1.88339019	2.39908504
	193.813000	9.98040701	9.98548681	1.133E-006	1.88337314	2.39905763
	194.093000	9.98040701	9.98548541	1.146E-006	1.88338304	2.39906931
	194.373000	9.98040621	9.98548621	1.126E-006	1.88335061	2.39904404
	194.658000	9.98040681	9.98548641	1.125E-006	1.88340414	2.39909005
	194.938000	9.98040681	9.98548601	1.129E-006	1.88338864	2.39905691
	195.218000	9.98040661	9.98548621	1.140E-006	1.88336194	2.39905715
	195.508000	9.98040701	9.98548621	1.132E-006	1.88336825	2.39893889
	195.788000	9.98040701	9.98548581	1.151E-006	1.88326597	2.39896393
	196.068000	9.98040661	9.98548581	1.126E-006	1.88332641	2.39906788
	196.348000	9.98040681	9.98548621	1.143E-006	1.88339388	2.39906096
	196.638000	9.98040621	9.98548621	1.132E-006	1.88335860	2.39902616
	196.928000	9.98040681	9.98548601	1.141E-006	1.88344109	2.39907503
	197.208000	9.98040581	9.98548661	1.127E-006	1.88336134	2.39896917
	197.493000	9.98040641	9.98548561	1.129E-006	1.88341188	2.39905596
	197.778000	9.98040641	9.98548601	1.125E-006	1.88338935	2.39904022
	198.068000	9.98040661	9.98548601	1.136E-006	1.88336134	2.39905643
	198.348000	9.98040701	9.98548601	1.149E-006	1.88332868	2.39901924
	198.628000	9.98040681	9.98548581	1.138E-006	1.88337362	2.39903665
	198.918000	9.98040721	9.98548581	1.143E-006	1.88334751	2.39905214
	199.198000	9.98040721	9.98548601	1.140E-006	1.88336968	2.39906931
	199.478000	9.98040721	9.98548621	1.136E-006	1.88339949	2.39907503
	199.758000	9.98040721	9.98548641	1.135E-006	1.88333845	2.39907575
	200.038000	9.98040721	9.98548661	1.129E-006	1.88335896	2.39904618
	200.318000	9.98040601	9.98548721	1.130E-006	1.88331306	2.39908957
	200.598000	9.98040701	9.98548701	1.133E-006	1.88336885	2.39905000
	200.883000	9.98040701	9.98548681	1.126E-006	1.88338256	2.39906311
	201.163000	9.98040721	9.98548701	1.122E-006	1.88338983	2.39906788
	201.443000	9.98040741	9.98548701	1.131E-006	1.88339007	2.39910102
	201.728000	9.98040821	9.98548561	1.148E-006	1.88344848	2.39913321
	202.018000	9.98040781	9.98548681	1.138E-006	1.88334560	2.39908981
	202.298000	9.98040801	9.98548701	1.133E-006	1.88335431	2.39910603
	202.578000	9.98040741	9.98548761	1.122E-006	1.88339245	2.39910150
	202.858000	9.98040881	9.98548741	1.142E-006	1.88338888	2.39911795
	203.138000	9.98040801	9.98548761	1.127E-006	1.88342702	2.39911699
	203.418000	9.98040761	9.98548801	1.124E-006	1.88339579	2.39914155
	203.698000	9.98040881	9.98548761	1.136E-006	1.88342166	2.39909244
	203.978000	9.98040841	9.98548841	1.123E-006	1.88343215	2.39913082
	204.258000	9.98040841	9.98548821	1.133E-006	1.88342929	2.39917302
	204.538000	9.98040941	9.98548901	1.135E-006	1.88328469	2.39895916
	204.818000	9.98040861	9.98548881	1.123E-006	1.88337052	2.39906788
	205.098000	9.98040901	9.98548761	1.132E-006	1.88337970	2.39909458
	205.383000	9.98040881	9.98548881	1.122E-006	1.88336074	2.39906883
	205.678000	9.98040901	9.98548901	1.127E-006	1.88328731	2.39903259
	205.958000	9.98041001	9.98548861	1.146E-006	1.88329494	2.39901757
	206.238000	9.98041001	9.98548981	1.114E-006	1.88327312	2.39897251
	206.528000	9.98040981	9.98548961	1.130E-006	1.88337088	2.39911246
	206.808000	9.98041041	9.98548881	1.129E-006	1.88340497	2.39910626
	207.088000	9.98040981	9.98548921	1.134E-006	1.88340473	2.39909744
	207.368000	9.98041001	9.98548901	1.141E-006	1.88338792	2.39913774
	207.648000	9.98041021	9.98548821	1.142E-006	1.88341069	2.39909005
	207.928000	9.98040861	9.98548841	1.123E-006	1.88338709	2.39910150
	208.208000	9.98040901	9.98548761	1.136E-006	1.88341153	2.39908218
	208.498000	9.98040861	9.98548741	1.147E-006	1.88340974	2.39910769
	208.778000	9.98040821	9.98548641	1.132E-006	1.88338482	2.39910126
	209.058000	9.98040701	9.98548681	1.123E-006	1.88341510	2.39906573
	209.348000	9.98040761	9.98548521	1.147E-006	1.88335872	2.39908767
	209.628000	9.98040701	9.98548541	1.122E-006	1.88336027	2.39912152
	209.903000	9.98040741	9.98548521	1.134E-006	1.88331938	2.39902663
	210.188000	9.98040501	9.98548521	1.101E-006	1.88334846	2.39909482
	210.478000	9.98040681	9.98548421	1.131E-006	1.88318515	2.39913082
	210.758000	9.98040721	9.98548381	1.133E-006	1.88321137	2.39917874
	211.038000	9.98040781	9.98548301	1.147E-006	1.88314354	2.39926004
	211.318000	9.98040801	9.98548281	1.135E-006	1.88308430	2.39931250
	211.598000	9.98040861	9.98548261	1.138E-006	1.88308072	2.39934301
	211.878000	9.98040861	9.98548341	1.135E-006	1.88301253	2.39928412
	212.158000	9.98040881	9.98548261	1.128E-006	1.88308585	2.39946938
	212.438000	9.98040921	9.98548161	1.135E-006	1.88296330	2.39943528
	212.718000	9.98040841	9.98548221	1.123E-006	1.88295305	2.39949131
	213.008000	9.98040921	9.98548161	1.134E-006	1.88294804	2.39949012
	213.288000	9.98040961	9.98548101	1.143E-006	1.88295197	2.39957333
	213.568000	9.98041001	9.98548041	1.145E-006	1.88292301	2.39950943
	213.858000	9.98040941	9.98548041	1.133E-006	1.88292515	2.39955020
	214.138000	9.98040981	9.98548061	1.137E-006	1.88290012	2.39955759
	214.418000	9.98040981	9.98548041	1.140E-006	1.88292384	2.39956236
	214.698500	9.98041041	9.98547941	1.156E-006	1.88292301	2.39960885
	214.979000	9.98041081	9.98547881	1.159E-006	1.88292015	2.39956188
	215.259000	9.98040941	9.98548041	1.131E-006	1.88283277	2.39956689
	215.539000	9.98040981	9.98548041	1.146E-006	1.88282156	2.39959002
	215.819000	9.98041021	9.98548021	1.139E-006	1.88282323	2.39956474
	216.094000	9.98041061	9.98547981	1.136E-006	1.88278401	2.39952278
	216.379000	9.98041021	9.98548021	1.137E-006	1.88279474	2.39959002
	216.659000	9.98040981	9.98548061	1.125E-006	1.88280404	2.39954472
	216.939000	9.98041061	9.98548001	1.139E-006	1.88278913	2.39955688
	217.229000	9.98041081	9.98548001	1.143E-006	1.88278139	2.39959931
	217.519000	9.98041101	9.98548041	1.145E-006	1.88280129	2.39962673
	217.809000	9.98041061	9.98548061	1.122E-006	1.88280690	2.39959192
	218.089000	9.98041141	9.98548021	1.144E-006	1.88273084	2.39958525
	218.359000	9.98041221	9.98548021	1.146E-006	1.88271427	2.39957762
	218.644000	9.98041181	9.98548021	1.142E-006	1.88280416	2.39966226
	218.934000	9.98041221	9.98548001	1.160E-006	1.88282633	2.39966536
	219.214000	9.98041201	9.98548081	1.131E-006	1.88279629	2.39971924
	219.494000	9.98041261	9.98548081	1.138E-006	1.88280869	2.39968348
	219.774000	9.98041221	9.98548141	1.136E-006	1.88276482	2.39969587
	220.059000	9.98041161	9.98548101	1.122E-006	1.88273942	2.39972425
	220.349000	9.98041281	9.98548121	1.142E-006	1.88264239	2.39973259
	220.644000	9.98041341	9.98548081	1.135E-006	1.88275397	2.39975071
	220.934000	9.98041401	9.98547941	1.150E-006	1.88277495	2.39975476
	221.214000	9.98041401	9.98548001	1.160E-006	1.88274503	2.39977598
	221.489000	9.98041381	9.98548061	1.142E-006	1.88272822	2.39979672
	221.769000	9.98041341	9.98548061	1.131E-006	1.88269997	2.39978886
	222.049000	9.98041401	9.98548061	1.139E-006	1.88270640	2.39983630
	222.329000	9.98041481	9.98548041	1.152E-006	1.88270855	2.39982820
	222.624000	9.98041461	9.98548061	1.134E-006	1.88268530	2.39986038
	222.904000	9.98041461	9.98548041	1.147E-006	1.88262975	2.39983964
	223.179000	9.98041421	9.98548041	1.131E-006	1.88264298	2.39986563
	223.469000	9.98041501	9.98548041	1.144E-006	1.88262773	2.39986467
	223.749000	9.98041461	9.98548041	1.131E-006	1.88263524	2.39989972
	224.029000	9.98041461	9.98548041	1.128E-006	1.88264859	2.39991426
	224.319000	9.98041461	9.98548021	1.131E-006	1.88262868	2.39986181
	224.599000	9.98041541	9.98547981	1.136E-006	1.88251233	2.39984822
	224.879000	9.98041521	9.98547961	1.139E-006	1.88250637	2.39984488
	225.164000	9.98041561	9.98548001	1.141E-006	1.88250172	2.39988518
	225.449000	9.98041741	9.98547881	1.165E-006	1.88262069	2.40000939
	225.739000	9.98041561	9.98548081	1.130E-006	1.88257265	2.39997101
	226.019000	9.98041661	9.98548041	1.136E-006	1.88257062	2.39997935
	226.289000	9.98041741	9.98548021	1.141E-006	1.88256598	2.40001750
	226.569000	9.98041781	9.98548021	1.163E-006	1.88255012	2.40005279
	226.859000	9.98041781	9.98548061	1.152E-006	1.88256168	2.40001178
	227.139000	9.98041841	9.98548041	1.156E-006	1.88245416	2.39994407
	227.409000	9.98041781	9.98548141	1.125E-006	1.88245046	2.39993382
	227.699000	9.98041721	9.98548181	1.123E-006	1.88253307	2.40004492
	227.989000	9.98041681	9.98548181	1.133E-006	1.88252795	2.40004730
	228.269000	9.98041821	9.98548161	1.128E-006	1.88243318	2.39993119
	228.554000	9.98041881	9.98548201	1.129E-006	1.88248968	2.39996576
	228.834000	9.98041901	9.98548181	1.140E-006	1.88241756	2.39997101
	229.114000	9.98041881	9.98548301	1.138E-006	1.88241422	2.40002918
	229.399000	9.98041921	9.98548201	1.145E-006	1.88251317	2.40002275
	229.679000	9.98041881	9.98548181	1.138E-006	1.88250911	2.40004849
	229.954000	9.98041981	9.98548181	1.159E-006	1.88250065	2.40006018
	230.234000	9.98041901	9.98548261	1.129E-006	1.88250744	2.40007424
	230.514000	9.98042041	9.98548241	1.143E-006	1.88249922	2.39998913
	230.794000	9.98041881	9.98548321	1.122E-006	1.88238776	2.40002203
	231.074000	9.98041961	9.98548241	1.142E-006	1.88248765	2.40001106
	231.354000	9.98041921	9.98548301	1.124E-006	1.88243246	2.40000200
	231.639000	9.98042021	9.98548241	1.142E-006	1.88248289	2.40006375
	231.929000	9.98042061	9.98548261	1.149E-006	1.88252878	2.40009642
	232.224000	9.98042021	9.98548241	1.149E-006	1.88248980	2.40007544
	232.504000	9.98042081	9.98548241	1.149E-006	1.88245296	2.40002489
	232.779000	9.98042081	9.98548261	1.150E-006	1.88247621	2.40004373
	233.059000	9.98042021	9.98548321	1.131E-006	1.88246560	2.40004945
	233.339000	9.98042061	9.98548301	1.144E-006	1.88247836	2.40005851
	233.619000	9.98042081	9.98548321	1.148E-006	1.88245714	2.40004516
	233.889000	9.98042061	9.98548361	1.131E-006	1.88239157	2.39993382
	234.169000	9.98042061	9.98548301	1.148E-006	1.88242817	2.40001249
	234.459000	9.98042141	9.98548281	1.143E-006	1.88245368	2.40006280
	234.739000	9.98042021	9.98548361	1.123E-006	1.88239694	2.39997268
	235.024000	9.98042101	9.98548221	1.145E-006	1.88245451	2.40007401
	235.314000	9.98042101	9.98548301	1.138E-006	1.88238537	2.40000558
	235.594000	9.98042061	9.98548341	1.136E-006	1.88244390	2.39997435
	235.869000	9.98042161	9.98548241	1.163E-006	1.88240159	2.40002418
	236.149000	9.98042041	9.98548321	1.135E-006	1.88241470	2.39999533
	236.429000	9.98042021	9.98548281	1.140E-006	1.88242412	2.40001726
	236.709000	9.98042061	9.98548261	1.139E-006	1.88235593	2.40007329
	236.999000	9.98042121	9.98548221	1.143E-006	1.88242674	2.40001392
	237.279000	9.98042021	9.98548261	1.141E-006	1.88246036	2.40007520
	237.559000	9.98042041	9.98548201	1.148E-006	1.88245118	2.40003252
	237.849000	9.98042001	9.98548221	1.141E-006	1.88249969	2.40007281
	238.139000	9.98041981	9.98548181	1.146E-006	1.88248634	2.40006733
	238.419000	9.98041981	9.98548181	1.149E-006	1.88248909	2.40007615
	238.694000	9.98041901	9.98548181	1.129E-006	1.88250005	2.40011907
	238.979000	9.98041941	9.98548181	1.137E-006	1.88245940	2.40000439
	239.269000	9.98041901	9.98548101	1.141E-006	1.88245082	2.40008378
	239.559000	9.98041961	9.98548101	1.152E-006	1.88245904	2.40002775
	239.839000	9.98041921	9.98548101	1.150E-006	1.88252115	2.40009046
	240.119000	9.98041801	9.98548141	1.133E-006	1.88246953	2.40002036
	240.399000	9.98041861	9.98548081	1.144E-006	1.88247800	2.40002036
	240.679000	9.98041801	9.98548141	1.133E-006	1.88242304	2.40001273
	240.959000	9.98041821	9.98548061	1.146E-006	1.88246667	2.40003300
	241.239000	9.98041921	9.98548021	1.152E-006	1.88246250	2.40000534
	241.519000	9.98041821	9.98548041	1.147E-006	1.88248253	2.40005684
	241.799000	9.98041821	9.98548061	1.145E-006	1.88251221	2.40002203
	242.079000	9.98041741	9.98548001	1.141E-006	1.88253546	2.40006399
	242.359000	9.98041721	9.98547961	1.146E-006	1.88252115	2.40006328
	242.649000	9.98041701	9.98548021	1.136E-006	1.88246906	2.40001154
	242.934000	9.98041721	9.98547941	1.138E-006	1.88251293	2.40003920
	243.219000	9.98041741	9.98547901	1.152E-006	1.88251126	2.40003729
	243.499000	9.98041661	9.98547901	1.143E-006	1.88255870	2.40005279
	243.779000	9.98041561	9.98548001	1.129E-006	1.88241315	2.39996552
	244.059000	9.98041741	9.98547861	1.163E-006	1.88241911	2.39995956
	244.329000	9.98041701	9.98547881	1.156E-006	1.88247335	2.39995718
	244.609000	9.98041581	9.98548001	1.133E-006	1.88249171	2.40002561
	244.899000	9.98041661	9.98547861	1.150E-006	1.88258862	2.40003204
	245.179000	9.98041621	9.98547881	1.133E-006	1.88259101	2.40006423
	245.449000	9.98041601	9.98547901	1.147E-006	1.88255703	2.40002036
	245.729000	9.98041641	9.98547861	1.144E-006	1.88256907	2.40002322
	246.019000	9.98041581	9.98547941	1.137E-006	1.88257766	2.40001297
	246.309000	9.98041561	9.98547961	1.135E-006	1.88259602	2.40001750
	246.599000	9.98041521	9.98547981	1.133E-006	1.88259649	2.40001655
	246.884000	9.98041641	9.98547881	1.158E-006	1.88260281	2.39993358
	247.164000	9.98041661	9.98547961	1.153E-006	1.88252497	2.39985228
	247.444000	9.98041621	9.98547981	1.146E-006	1.88251829	2.39989901
	247.729000	9.98041521	9.98548041	1.123E-006	1.88252890	2.39991808
	248.019000	9.98041581	9.98548021	1.137E-006	1.88257778	2.39995360
	248.309000	9.98041601	9.98548001	1.134E-006	1.88264918	2.39998150
	248.589000	9.98041601	9.98548081	1.133E-006	1.88269997	2.39998770
	248.859000	9.98041741	9.98548021	1.153E-006	1.88263571	2.39990139
	249.139000	9.98041641	9.98548121	1.145E-006	1.88267362	2.39995313
	249.419000	9.98041661	9.98548041	1.145E-006	1.88267279	2.39994931
	249.699000	9.98041621	9.98548161	1.130E-006	1.88259184	2.39987111
	249.979000	9.98041641	9.98548141	1.141E-006	1.88262427	2.39984775
	250.259000	9.98041601	9.98548161	1.126E-006	1.88262153	2.39983940
	250.549000	9.98041701	9.98548201	1.145E-006	1.88262224	2.39982843
	250.829000	9.98041621	9.98548241	1.133E-006	1.88264287	2.39978361
	251.109000	9.98041601	9.98548281	1.132E-006	1.88266945	2.39981127
	251.389000	9.98041641	9.98548341	1.135E-006	1.88265944	2.39982653
	251.669000	9.98041601	9.98548341	1.138E-006	1.88278341	2.39990592
	251.949000	9.98041721	9.98548241	1.166E-006	1.88277519	2.39981818
	252.219000	9.98041741	9.98548281	1.161E-006	1.88277900	2.39984107
	252.489000	9.98041661	9.98548361	1.141E-006	1.88278544	2.39978766
	252.759000	9.98041681	9.98548341	1.141E-006	1.88281190	2.39974689
	253.039000	9.98041621	9.98548401	1.134E-006	1.88276923	2.39972162
	253.329000	9.98041601	9.98548401	1.140E-006	1.88282049	2.39965534
	253.609000	9.98041561	9.98548421	1.131E-006	1.88288140	2.39969921
	253.879000	9.98041581	9.98548441	1.134E-006	1.88286304	2.39967489
	254.159000	9.98041541	9.98548421	1.136E-006	1.88285744	2.39965701
	254.449000	9.98041521	9.98548401	1.143E-006	1.88288164	2.39965510
	254.729000	9.98041441	9.98548421	1.132E-006	1.88291514	2.39964056
	255.009000	9.98041501	9.98548361	1.152E-006	1.88296020	2.39968133
	255.299000	9.98041481	9.98548341	1.147E-006	1.88298869	2.39970398
	255.579000	9.98041401	9.98548321	1.140E-006	1.88298881	2.39964962
	255.859000	9.98041341	9.98548361	1.133E-006	1.88296819	2.39964581
	256.139000	9.98041321	9.98548301	1.133E-006	1.88303256	2.39960742
	256.409000	9.98041281	9.98548321	1.134E-006	1.88291597	2.39948964
	256.689000	9.98041201	9.98548321	1.132E-006	1.88291001	2.39950085
	256.969000	9.98041121	9.98548281	1.130E-006	1.88294983	2.39952159
	257.249000	9.98041101	9.98548241	1.128E-006	1.88294697	2.39951158
	257.539000	9.98041081	9.98548161	1.135E-006	1.88294923	2.39950657
	257.829000	9.98040981	9.98548201	1.122E-006	1.88294208	2.39948559
	258.109000	9.98041021	9.98548081	1.143E-006	1.88299727	2.39957142
	258.389000	9.98040861	9.98548101	1.121E-006	1.88304484	2.39956999
	258.674000	9.98040841	9.98548081	1.119E-006	1.88301241	2.39952850
	258.959000	9.98040821	9.98548001	1.133E-006	1.88304973	2.39950609
	259.249000	9.98040881	9.98547921	1.149E-006	1.88303816	2.39950991
	259.529000	9.98040801	9.98547941	1.128E-006	1.88303947	2.39951611
	259.799000	9.98040721	9.98547941	1.137E-006	1.88304782	2.39949298
	260.079000	9.98040661	9.98547921	1.127E-006	1.88308239	2.39948750
	260.359000	9.98040601	9.98547921	1.125E-006	1.88314009	2.39951587
	260.639000	9.98040641	9.98547821	1.139E-006	1.88314354	2.39951563
	260.919000	9.98040661	9.98547821	1.146E-006	1.88312924	2.39949226
	261.189000	9.98040721	9.98547741	1.167E-006	1.88311970	2.39946938
	261.469000	9.98040581	9.98547781	1.144E-006	1.88309658	2.39938211
	261.769000	9.98040461	9.98547901	1.120E-006	1.88310385	2.39941144
	262.059000	9.98040561	9.98547801	1.138E-006	1.88308632	2.39936924
	262.339000	9.98040401	9.98547901	1.121E-006	1.88301015	2.39932442
	262.629000	9.98040481	9.98547821	1.138E-006	1.88312447	2.39938045
	262.914000	9.98040521	9.98547761	1.152E-006	1.88312960	2.39936686
	263.199000	9.98040501	9.98547761	1.142E-006	1.88313890	2.39942002
	263.479000	9.98040541	9.98547781	1.152E-006	1.88306487	2.39930463
	263.749000	9.98040421	9.98547821	1.123E-006	1.88308012	2.39932990
	264.029000	9.98040441	9.98547761	1.132E-006	1.88309455	2.39931893
	264.309000	9.98040401	9.98547781	1.122E-006	1.88308585	2.39928675
	264.589000	9.98040341	9.98547821	1.121E-006	1.88308179	2.39934826
	264.869000	9.98040341	9.98547781	1.120E-006	1.88312793	2.39932537
	265.149000	9.98040441	9.98547761	1.137E-006	1.88309896	2.39927864
	265.434000	9.98040341	9.98547841	1.125E-006	1.88311958	2.39927053
	265.714000	9.98040401	9.98547821	1.131E-006	1.88309121	2.39930606
	265.999000	9.98040361	9.98547781	1.135E-006	1.88313258	2.39930105
	266.289000	9.98040381	9.98547741	1.141E-006	1.88312221	2.39929295
	266.574000	9.98040401	9.98547761	1.134E-006	1.88312507	2.39940310
	266.854000	9.98040381	9.98547781	1.133E-006	1.88318515	2.39935470
	267.134000	9.98040361	9.98547801	1.130E-006	1.88318288	2.39937949
	267.414000	9.98040421	9.98547741	1.141E-006	1.88316035	2.39933872
	267.689000	9.98040481	9.98547701	1.155E-006	1.88319790	2.39938736
	267.969000	9.98040341	9.98547801	1.135E-006	1.88317513	2.39938426
	268.254000	9.98040421	9.98547821	1.138E-006	1.88318586	2.39933205
	268.529000	9.98040481	9.98547741	1.157E-006	1.88320851	2.39938927
	268.804000	9.98040361	9.98547841	1.125E-006	1.88316286	2.39931941
	269.084000	9.98040301	9.98547841	1.123E-006	1.88321066	2.39939666
	269.369000	9.98040341	9.98547821	1.125E-006	1.88318837	2.39928293
	269.649000	9.98040461	9.98547801	1.137E-006	1.88316238	2.39929461
	269.929000	9.98040321	9.98547881	1.121E-006	1.88315403	2.39940858
	270.224000	9.98040481	9.98547761	1.147E-006	1.88323152	2.39937401
	270.504000	9.98040401	9.98547821	1.142E-006	1.88322926	2.39938760
	270.769000	9.98040441	9.98547841	1.134E-006	1.88326609	2.39942741
	271.049000	9.98040461	9.98547801	1.145E-006	1.88325047	2.39938498
	271.339000	9.98040441	9.98547861	1.130E-006	1.88325465	2.39942050
	271.619000	9.98040441	9.98547861	1.132E-006	1.88322783	2.39939880
	271.899000	9.98040421	9.98547881	1.135E-006	1.88324904	2.39938736
	272.179000	9.98040421	9.98547921	1.124E-006	1.88327587	2.39941406
	272.459000	9.98040481	9.98547881	1.141E-006	1.88321590	2.39934492
	272.739000	9.98040501	9.98547921	1.139E-006	1.88321471	2.39933014
	273.024000	9.98040421	9.98547961	1.116E-006	1.88320267	2.39932942
	273.304000	9.98040481	9.98547941	1.126E-006	1.88318288	2.39929605
	273.579000	9.98040521	9.98547921	1.142E-006	1.88315594	2.39928389
	273.869000	9.98040521	9.98547921	1.138E-006	1.88319850	2.39934158
	274.149000	9.98040441	9.98548001	1.123E-006	1.88318932	2.39928913
	274.429000	9.98040461	9.98547981	1.121E-006	1.88320661	2.39935875
	274.709000	9.98040481	9.98548021	1.132E-006	1.88320374	2.39932132
	274.989000	9.98040561	9.98547941	1.134E-006	1.88323390	2.39930940
	275.269000	9.98040541	9.98547941	1.139E-006	1.88319468	2.39932704
	275.549000	9.98040441	9.98547961	1.121E-006	1.88319933	2.39938307
	275.834000	9.98040541	9.98547901	1.134E-006	1.88318610	2.39936185
	276.104000	9.98040561	9.98547821	1.155E-006	1.88320124	2.39936686
	276.379000	9.98040361	9.98547961	1.119E-006	1.88316154	2.39934945
	276.669000	9.98040521	9.98547841	1.139E-006	1.88317716	2.39936829
	276.954000	9.98040441	9.98547941	1.123E-006	1.88312221	2.39932084
	277.234000	9.98040381	9.98547921	1.121E-006	1.88311565	2.39933944
	277.514000	9.98040441	9.98547901	1.128E-006	1.88309026	2.39926481
	277.799000	9.98040401	9.98547881	1.116E-006	1.88311768	2.39936161
	278.079000	9.98040421	9.98547821	1.131E-006	1.88314927	2.39940500
	278.359000	9.98040461	9.98547761	1.140E-006	1.88314903	2.39939022
	278.649000	9.98040441	9.98547781	1.130E-006	1.88313901	2.39939570
	278.929000	9.98040441	9.98547741	1.133E-006	1.88319051	2.39943242
	279.209000	9.98040401	9.98547741	1.140E-006	1.88316298	2.39946032
	279.489000	9.98040361	9.98547761	1.127E-006	1.88312495	2.39941454
	279.759000	9.98040361	9.98547721	1.123E-006	1.88310373	2.39943743
	280.039000	9.98040441	9.98547641	1.130E-006	1.88313782	2.39950681
	280.329000	9.98040361	9.98547681	1.133E-006	1.88306582	2.39951706
	280.624000	9.98040461	9.98547621	1.136E-006	1.88305008	2.39952683
	280.909000	9.98040461	9.98547561	1.136E-006	1.88303995	2.39956188
	281.189000	9.98040521	9.98547521	1.154E-006	1.88299036	2.39950800
	281.469000	9.98040401	9.98547601	1.130E-006	1.88303018	2.39953446
	281.744000	9.98040501	9.98547481	1.163E-006	1.88302147	2.39955378
	282.024000	9.98040441	9.98547561	1.145E-006	1.88304114	2.39952874
	282.304000	9.98040441	9.98547621	1.128E-006	1.88300037	2.39952731
	282.584000	9.98040601	9.98547481	1.145E-006	1.88300395	2.39955044
	282.864000	9.98040461	9.98547581	1.122E-006	1.88298392	2.39961600
	283.139000	9.98040481	9.98547601	1.126E-006	1.88297462	2.39959359
	283.424000	9.98040501	9.98547581	1.133E-006	1.88299954	2.39964557
	283.704000	9.98040581	9.98547581	1.149E-006	1.88297534	2.39965701
	283.979000	9.98040641	9.98547621	1.145E-006	1.88296533	2.39966035
	284.264000	9.98040581	9.98547701	1.139E-006	1.88294435	2.39966249
	284.549000	9.98040741	9.98547681	1.149E-006	1.88290083	2.39961004
	284.839000	9.98040701	9.98547841	1.130E-006	1.88294101	2.39973164
	285.119000	9.98040881	9.98547821	1.145E-006	1.88292158	2.39966369
	285.399000	9.98040921	9.98547861	1.137E-006	1.88291371	2.39970589
	285.679000	9.98041021	9.98547921	1.145E-006	1.88289022	2.39965010
	285.959000	9.98041081	9.98547961	1.137E-006	1.88286543	2.39968824
	286.249000	9.98041181	9.98548061	1.149E-006	1.88286567	2.39972591
	286.529000	9.98041221	9.98548121	1.134E-006	1.88289320	2.39967203
	286.809000	9.98041361	9.98548161	1.148E-006	1.88281238	2.39963531
	287.089000	9.98041381	9.98548301	1.137E-006	1.88283038	2.39965963
	287.359000	9.98041501	9.98548321	1.149E-006	1.88281941	2.39959645
	287.639000	9.98041561	9.98548321	1.144E-006	1.88278759	2.39962864
	287.929000	9.98041461	9.98548461	1.125E-006	1.88274038	2.39965057
	288.214000	9.98041521	9.98548581	1.120E-006	1.88272941	2.39968204
	288.494000	9.98041581	9.98548581	1.125E-006	1.88279521	2.39967322
	288.774000	9.98041681	9.98548561	1.139E-006	1.88277316	2.39967942
	289.059000	9.98041761	9.98548601	1.125E-006	1.88276267	2.39970207
	289.339000	9.98041781	9.98548641	1.130E-006	1.88279510	2.39974785
	289.619000	9.98041821	9.98548641	1.137E-006	1.88282073	2.39974523
	289.899000	9.98041901	9.98548681	1.142E-006	1.88275909	2.39976573
	290.179000	9.98041981	9.98548661	1.149E-006	1.88279116	2.39973187
	290.459000	9.98042081	9.98548661	1.137E-006	1.88275027	2.39968276
	290.739000	9.98042001	9.98548741	1.144E-006	1.88264430	2.39971781
	291.019000	9.98042061	9.98548781	1.163E-006	1.88266253	2.39969492
	291.294000	9.98042081	9.98548761	1.146E-006	1.88274646	2.39977598
	291.574000	9.98042021	9.98548801	1.129E-006	1.88268971	2.39971375
	291.859000	9.98042081	9.98548821	1.135E-006	1.88269818	2.39969993
	292.149000	9.98042101	9.98548821	1.135E-006	1.88272142	2.39973879
	292.429000	9.98042121	9.98548821	1.143E-006	1.88270295	2.39968824
	292.709000	9.98042081	9.98548901	1.127E-006	1.88266838	2.39971733
	292.999000	9.98042101	9.98548921	1.144E-006	1.88263464	2.39966536
	293.279000	9.98042181	9.98548961	1.138E-006	1.88260841	2.39970565
	293.559000	9.98042221	9.98548901	1.133E-006	1.88270628	2.39976287
	293.839000	9.98042181	9.98548861	1.138E-006	1.88269186	2.39979029
	294.119000	9.98042201	9.98548841	1.149E-006	1.88272917	2.39982009
	294.399000	9.98042281	9.98548761	1.154E-006	1.88272619	2.39980626
	294.679000	9.98042121	9.98548841	1.133E-006	1.88282561	2.39990473
	294.964000	9.98042181	9.98548901	1.129E-006	1.88274848	2.39983749
	295.244000	9.98042161	9.98548921	1.122E-006	1.88262224	2.39969563
	295.524000	9.98042241	9.98548861	1.138E-006	1.88256776	2.39971185
	295.809000	9.98042281	9.98548961	1.139E-006	1.88253760	2.39973283
	296.099000	9.98042341	9.98548961	1.137E-006	1.88254476	2.39968610
	296.379000	9.98042381	9.98548961	1.148E-006	1.88247561	2.39970374
	296.659000	9.98042361	9.98549001	1.135E-006	1.88248003	2.39966083
	296.949000	9.98042421	9.98548981	1.145E-006	1.88240945	2.39964700
	297.229000	9.98042441	9.98549001	1.141E-006	1.88244951	2.39963388
	297.509000	9.98042421	9.98549061	1.134E-006	1.88246143	2.39968824
	297.794000	9.98042441	9.98549081	1.129E-006	1.88246357	2.39966345
	298.074000	9.98042501	9.98549041	1.140E-006	1.88252878	2.39974546
	298.364000	9.98042441	9.98549121	1.128E-006	1.88247621	2.39969611
	298.659000	9.98042521	9.98549081	1.152E-006	1.88253844	2.39971852
	298.939000	9.98042541	9.98549061	1.143E-006	1.88254857	2.39974308
	299.219000	9.98042421	9.98549201	1.135E-006	1.88251567	2.39976835
	299.509000	9.98042481	9.98549041	1.150E-006	1.88281167	2.39982557
	299.789000	9.98042581	9.98549101	1.155E-006	1.88268030	2.39979458
	300.069000	9.98042521	9.98549181	1.140E-006	1.88259578	2.39973044
	300.354000	9.98042601	9.98549081	1.153E-006	1.88259614	2.39979601
	300.639000	9.98042521	9.98549201	1.131E-006	1.88261878	2.39976072
	300.919000	9.98042521	9.98549241	1.127E-006	1.88263249	2.39982510
	301.199000	9.98042501	9.98549221	1.134E-006	1.88257945	2.39982462
	301.479000	9.98042601	9.98549161	1.149E-006	1.88263142	2.39983082
	301.759000	9.98042581	9.98549141	1.141E-006	1.88266039	2.39984345
	302.039000	9.98042621	9.98549161	1.140E-006	1.88269711	2.39986730
	302.319000	9.98042561	9.98549221	1.137E-006	1.88260818	2.39979720
	302.599000	9.98042701	9.98549081	1.165E-006	1.88263440	2.39981127
	302.879000	9.98042601	9.98549181	1.138E-006	1.88259315	2.39973116
	303.169000	9.98042561	9.98549201	1.122E-006	1.88260627	2.39980388
	303.459000	9.98042601	9.98549201	1.133E-006	1.88265836	2.39976501
	303.744000	9.98042541	9.98549241	1.118E-006	1.88264251	2.39978552
	304.029000	9.98042561	9.98549201	1.127E-006	1.88260722	2.39975810
	304.309000	9.98042601	9.98549161	1.139E-006	1.88257086	2.39976907
	304.589000	9.98042661	9.98549161	1.151E-006	1.88257849	2.39977574
	304.879000	9.98042601	9.98549181	1.145E-006	1.88261616	2.39977956
	305.159000	9.98042641	9.98549141	1.146E-006	1.88262928	2.39979029
	305.439000	9.98042661	9.98549141	1.141E-006	1.88266349	2.39975905
	305.719000	9.98042581	9.98549161	1.139E-006	1.88264775	2.39980340
	305.999000	9.98042601	9.98549141	1.144E-006	1.88264298	2.39977789
	306.279000	9.98042561	9.98549101	1.154E-006	1.88256526	2.39974856
	306.559000	9.98042541	9.98549101	1.143E-006	1.88250899	2.39969540
	306.849000	9.98042561	9.98549121	1.146E-006	1.88246942	2.39971375
	307.129000	9.98042541	9.98549101	1.144E-006	1.88262928	2.39973974
	307.419000	9.98042461	9.98549061	1.137E-006	1.88259995	2.39976931
	307.709000	9.98042421	9.98549081	1.137E-006	1.88259733	2.39976406
	307.984000	9.98042481	9.98549041	1.156E-006	1.88263226	2.39973593
	308.269000	9.98042421	9.98549041	1.146E-006	1.88252938	2.39968562
	308.559000	9.98042501	9.98548921	1.160E-006	1.88254452	2.39965415
	308.839000	9.98042421	9.98548941	1.151E-006	1.88263834	2.39974213
	309.119000	9.98042441	9.98548921	1.151E-006	1.88261092	2.39971924
	309.399000	9.98042341	9.98548961	1.141E-006	1.88262045	2.39974308
	309.679000	9.98042201	9.98548941	1.125E-006	1.88263798	2.39974713
	309.959000	9.98042301	9.98548941	1.137E-006	1.88261592	2.39974093
	310.239000	9.98042241	9.98548921	1.134E-006	1.88259459	2.39971328
	310.529000	9.98042281	9.98548821	1.150E-006	1.88256824	2.39970946
	310.809000	9.98042261	9.98548821	1.145E-006	1.88265181	2.39973831
	311.089000	9.98042161	9.98548901	1.125E-006	1.88262296	2.39971042
	311.374000	9.98042081	9.98548941	1.118E-006	1.88252604	2.39961481
	311.659000	9.98042201	9.98548821	1.136E-006	1.88256049	2.39962554
	311.939000	9.98042161	9.98548821	1.140E-006	1.88250661	2.39966846
	312.224000	9.98042161	9.98548741	1.130E-006	1.88256526	2.39973545
	312.504000	9.98042181	9.98548721	1.136E-006	1.88255870	2.39962029
	312.779000	9.98042161	9.98548681	1.145E-006	1.88256037	2.39966869
	313.059000	9.98042161	9.98548681	1.148E-006	1.88255751	2.39967608
	313.339000	9.98042181	9.98548701	1.150E-006	1.88257754	2.39960766
	313.619000	9.98042061	9.98548701	1.141E-006	1.88258147	2.39966297
	313.899000	9.98042041	9.98548681	1.135E-006	1.88259673	2.39965653
	314.189000	9.98042021	9.98548701	1.137E-006	1.88257051	2.39961934
	314.469000	9.98041921	9.98548741	1.117E-006	1.88254035	2.39959240
	314.749000	9.98041961	9.98548681	1.132E-006	1.88254344	2.39959931
	315.039000	9.98041961	9.98548661	1.134E-006	1.88258743	2.39968753
	315.324000	9.98042001	9.98548681	1.142E-006	1.88260174	2.39964080
	315.604000	9.98041981	9.98548661	1.132E-006	1.88257372	2.39960265
	315.884000	9.98041981	9.98548661	1.138E-006	1.88259006	2.39958620
	316.164000	9.98042001	9.98548621	1.154E-006	1.88259137	2.39965010
	316.444000	9.98042041	9.98548641	1.143E-006	1.88265228	2.39966488
	316.724000	9.98041941	9.98548701	1.134E-006	1.88260257	2.39961314
	316.999000	9.98042001	9.98548661	1.139E-006	1.88261652	2.39955902
	317.279000	9.98042001	9.98548641	1.146E-006	1.88262904	2.39957571
	317.559000	9.98041921	9.98548741	1.124E-006	1.88266945	2.39963436
	317.839000	9.98042021	9.98548701	1.138E-006	1.88271856	2.39964151
	318.124000	9.98041901	9.98548781	1.123E-006	1.88270378	2.39964390
	318.404000	9.98041981	9.98548721	1.135E-006	1.88272166	2.39960623
	318.684000	9.98042021	9.98548681	1.147E-006	1.88272882	2.39967322
	318.969000	9.98041941	9.98548741	1.127E-006	1.88269079	2.39958024
	319.259000	9.98041941	9.98548801	1.140E-006	1.88271379	2.39956856
	319.539000	9.98041981	9.98548801	1.132E-006	1.88272095	2.39958811
	319.824000	9.98042021	9.98548761	1.140E-006	1.88274252	2.39958072
	320.104000	9.98042021	9.98548781	1.146E-006	1.88276017	2.39960647
	320.379000	9.98041921	9.98548861	1.126E-006	1.88278651	2.39962220
	320.659000	9.98042001	9.98548841	1.140E-006	1.88279593	2.39963698
	320.939000	9.98042041	9.98548801	1.144E-006	1.88277519	2.39959693
	321.219000	9.98041961	9.98548881	1.133E-006	1.88280153	2.39957380
	321.499000	9.98041941	9.98548921	1.134E-006	1.88275158	2.39954138
	321.789000	9.98042041	9.98548881	1.145E-006	1.88278258	2.39953995
	322.069000	9.98042021	9.98548841	1.147E-006	1.88281381	2.39953732
	322.349000	9.98041921	9.98548941	1.135E-006	1.88282669	2.39953518
	322.634000	9.98041901	9.98548961	1.125E-006	1.88283670	2.39952230
	322.919000	9.98041941	9.98548941	1.135E-006	1.88285732	2.39953589
	323.199000	9.98041841	9.98548941	1.128E-006	1.88284206	2.39943004
	323.479000	9.98041901	9.98548901	1.134E-006	1.88277876	2.39942575
	323.759000	9.98041881	9.98548901	1.132E-006	1.88284266	2.39946175
	324.034000	9.98041821	9.98548881	1.128E-006	1.88283634	2.39943266
	324.314000	9.98041901	9.98548821	1.147E-006	1.88284850	2.39942551
	324.599000	9.98041821	9.98548861	1.136E-006	1.88286114	2.39941692
	324.879000	9.98041701	9.98548881	1.117E-006	1.88285971	2.39938641
	325.159000	9.98041761	9.98548821	1.134E-006	1.88287079	2.39933681
	325.449000	9.98041561	9.98548841	1.126E-006	1.88284373	2.39937139
	325.739000	9.98041601	9.98548801	1.121E-006	1.88292515	2.39940739
	326.029000	9.98041701	9.98548681	1.156E-006	1.88294232	2.39942002
	326.314000	9.98041521	9.98548701	1.126E-006	1.88296807	2.39945388
	326.589000	9.98041601	9.98548641	1.141E-006	1.88294590	2.39940667
	326.879000	9.98041521	9.98548601	1.142E-006	1.88292277	2.39938831
	327.169000	9.98041481	9.98548541	1.145E-006	1.88295507	2.39936042
	327.449000	9.98041401	9.98548581	1.131E-006	1.88293982	2.39934802
	327.739000	9.98041361	9.98548561	1.123E-006	1.88293147	2.39941287
	328.019000	9.98041341	9.98548501	1.135E-006	1.88296759	2.39939260
	328.289000	9.98041241	9.98548481	1.124E-006	1.88296127	2.39940643
	328.569000	9.98041301	9.98548401	1.153E-006	1.88293982	2.39927411
	328.849000	9.98041161	9.98548401	1.128E-006	1.88290763	2.39929748
	329.129000	9.98041101	9.98548381	1.112E-006	1.88291287	2.39929962
	329.424000	9.98040961	9.98548421	1.109E-006	1.88292944	2.39931536
	329.709000	9.98041121	9.98548281	1.142E-006	1.88298213	2.39930630
	329.984000	9.98041041	9.98548241	1.139E-006	1.88300991	2.39934611
	330.264000	9.98040981	9.98548241	1.127E-006	1.88302505	2.39935899
	330.549000	9.98041001	9.98548181	1.132E-006	1.88304591	2.39936900
	330.829000	9.98040901	9.98548261	1.120E-006	1.88294590	2.39925146
	331.109000	9.98040901	9.98548201	1.136E-006	1.88297164	2.39928436
	331.389000	9.98040901	9.98548201	1.136E-006	1.88295424	2.39924645
	331.669000	9.98040901	9.98548221	1.129E-006	1.88291025	2.39919639
	331.949000	9.98040921	9.98548241	1.139E-006	1.88296616	2.39926386
	332.229000	9.98040901	9.98548181	1.142E-006	1.88303423	2.39927649
	332.509000	9.98040921	9.98548121	1.146E-006	1.88303208	2.39927316
	332.779000	9.98040861	9.98548141	1.130E-006	1.88304543	2.39927649
	333.059000	9.98040781	9.98548221	1.126E-006	1.88295305	2.39918208
	333.349000	9.98040781	9.98548181	1.122E-006	1.88301086	2.39922786
	333.629000	9.98040801	9.98548201	1.125E-006	1.88305783	2.39926195
	333.909000	9.98040761	9.98548181	1.141E-006	1.88304603	2.39925265
	334.199000	9.98040901	9.98548141	1.140E-006	1.88305032	2.39927173
	334.479000	9.98040741	9.98548181	1.125E-006	1.88305354	2.39924240
	334.759000	9.98040721	9.98548181	1.121E-006	1.88306665	2.39929867
	335.049000	9.98040821	9.98548141	1.149E-006	1.88300908	2.39924860
	335.329000	9.98040801	9.98548141	1.145E-006	1.88304579	2.39921069
	335.609000	9.98040761	9.98548221	1.133E-006	1.88301671	2.39927340
	335.889000	9.98040781	9.98548141	1.134E-006	1.88307214	2.39925528
	336.169000	9.98040861	9.98548081	1.148E-006	1.88311779	2.39928246
	336.449000	9.98040761	9.98548101	1.146E-006	1.88308907	2.39925098
	336.729000	9.98040781	9.98548121	1.129E-006	1.88305545	2.39926314
	337.014000	9.98040721	9.98548161	1.135E-006	1.88302517	2.39923263
	337.299000	9.98040721	9.98548141	1.133E-006	1.88306856	2.39923406
	337.589000	9.98040701	9.98548201	1.125E-006	1.88306141	2.39921403
	337.869000	9.98040881	9.98548081	1.144E-006	1.88305283	2.39920115
	338.149000	9.98040821	9.98548141	1.141E-006	1.88301551	2.39924002
	338.439000	9.98040841	9.98548161	1.142E-006	1.88299298	2.39921308
	338.719000	9.98040741	9.98548141	1.135E-006	1.88310540	2.39924455
	338.999000	9.98040821	9.98548141	1.145E-006	1.88309062	2.39927721
	339.279000	9.98040781	9.98548141	1.140E-006	1.88313448	2.39930487
	339.559000	9.98040841	9.98548081	1.139E-006	1.88305259	2.39925265
	339.844000	9.98040841	9.98548121	1.146E-006	1.88310325	2.39927244
	340.124000	9.98040741	9.98548141	1.128E-006	1.88310158	2.39928436
	340.404000	9.98040761	9.98548141	1.135E-006	1.88308811	2.39922976
	340.689000	9.98040721	9.98548141	1.135E-006	1.88304818	2.39923739
	340.979000	9.98040701	9.98548161	1.128E-006	1.88308549	2.39924932
	341.269000	9.98040821	9.98548121	1.146E-006	1.88308930	2.39920187
	341.549000	9.98040761	9.98548161	1.123E-006	1.88309193	2.39927244
	341.829000	9.98040761	9.98548161	1.129E-006	1.88311911	2.39930987
	342.119000	9.98040741	9.98548181	1.126E-006	1.88310707	2.39927220
	342.399000	9.98040761	9.98548201	1.128E-006	1.88310707	2.39924955
	342.679000	9.98040821	9.98548121	1.138E-006	1.88310993	2.39928603
	342.959000	9.98040841	9.98548121	1.141E-006	1.88306475	2.39925981
	343.239000	9.98040781	9.98548141	1.137E-006	1.88313234	2.39926648
	343.519000	9.98040821	9.98548121	1.145E-006	1.88308668	2.39929175
	343.799000	9.98040721	9.98548141	1.128E-006	1.88309026	2.39926124
	344.079000	9.98040761	9.98548141	1.136E-006	1.88307750	2.39924836
	344.354000	9.98040761	9.98548101	1.131E-006	1.88311946	2.39929652
	344.649000	9.98040761	9.98548121	1.129E-006	1.88309062	2.39928341
	344.939000	9.98040801	9.98548101	1.141E-006	1.88310051	2.39927006
	345.219000	9.98040721	9.98548141	1.138E-006	1.88307393	2.39929962
	345.509000	9.98040721	9.98548081	1.129E-006	1.88308358	2.39923382
	345.794000	9.98040681	9.98548141	1.126E-006	1.88301516	2.39918780
	346.079000	9.98040741	9.98548041	1.141E-006	1.88300323	2.39917564
	346.359000	9.98040721	9.98548101	1.128E-006	1.88299835	2.39918971
	346.639000	9.98040721	9.98548041	1.133E-006	1.88299644	2.39924598
	346.929000	9.98040781	9.98548021	1.145E-006	1.88302255	2.39921117
	347.209000	9.98040761	9.98548041	1.139E-006	1.88309634	2.39932108
	347.479000	9.98040741	9.98548061	1.142E-006	1.88302302	2.39925814
	347.759000	9.98040741	9.98548021	1.139E-006	1.88305318	2.39932632
	348.049000	9.98040721	9.98548041	1.135E-006	1.88303947	2.39931297
	348.339000	9.98040681	9.98548021	1.120E-006	1.88309121	2.39937067
	348.619000	9.98040721	9.98548041	1.126E-006	1.88309216	2.39936590
	348.899000	9.98040821	9.98547861	1.152E-006	1.88301134	2.39931750
	349.189000	9.98040641	9.98548021	1.116E-006	1.88298988	2.39935279
	349.469000	9.98040741	9.98547921	1.133E-006	1.88301551	2.39938831
	349.749000	9.98040821	9.98547941	1.139E-006	1.88287640	2.39927530
	350.034000	9.98040861	9.98547861	1.144E-006	1.88287854	2.39933634
	350.309000	9.98040841	9.98547921	1.141E-006	1.88287628	2.39934254
	350.584000	9.98040881	9.98547861	1.146E-006	1.88293111	2.39944363
	350.864000	9.98040781	9.98547941	1.134E-006	1.88290119	2.39947200
	351.149000	9.98040801	9.98548001	1.122E-006	1.88289142	2.39941978
	351.439000	9.98040901	9.98547901	1.138E-006	1.88283682	2.39937639
	351.719000	9.98040941	9.98547941	1.157E-006	1.88286006	2.39930797
	351.999000	9.98040841	9.98548081	1.123E-006	1.88287735	2.39935327
	352.289000	9.98040901	9.98548061	1.133E-006	1.88291204	2.39938474
	352.569000	9.98040881	9.98548101	1.128E-006	1.88290918	2.39940023
	352.849000	9.98040981	9.98548141	1.120E-006	1.88285744	2.39933658
	353.139000	9.98041061	9.98548121	1.142E-006	1.88284242	2.39932275
	353.429000	9.98041121	9.98548121	1.139E-006	1.88278055	2.39934421
	353.709000	9.98041101	9.98548181	1.132E-006	1.88281620	2.39936876
	353.984000	9.98041221	9.98548241	1.146E-006	1.88278544	2.39939356
	354.264000	9.98041321	9.98548301	1.148E-006	1.88279593	2.39935660
	354.544000	9.98041361	9.98548361	1.144E-006	1.88288367	2.39946032
	354.824000	9.98041521	9.98548361	1.156E-006	1.88284731	2.39944077
	355.099000	9.98041521	9.98548561	1.123E-006	1.88283181	2.39943504
	355.379000	9.98041681	9.98548581	1.148E-006	1.88282204	2.39945745
	355.659000	9.98041681	9.98548721	1.127E-006	1.88279021	2.39947653
	355.939000	9.98041841	9.98548781	1.150E-006	1.88280118	2.39946365
	356.229000	9.98041881	9.98548901	1.133E-006	1.88277769	2.39949417
	356.514000	9.98041941	9.98549021	1.125E-006	1.88275421	2.39949584
	356.789000	9.98042121	9.98548961	1.139E-006	1.88280940	2.39952350
	357.069000	9.98042101	9.98549161	1.137E-006	1.88274240	2.39953828
	357.349000	9.98042221	9.98549201	1.116E-006	1.88276100	2.39952803
	357.629000	9.98042401	9.98549201	1.136E-006	1.88266718	2.39943194
	357.909000	9.98042481	9.98549301	1.151E-006	1.88278759	2.39953780
	358.189000	9.98042401	9.98549401	1.131E-006	1.88276732	2.39959860
	358.469000	9.98042501	9.98549401	1.129E-006	1.88278461	2.39960599
	358.749000	9.98042561	9.98549441	1.129E-006	1.88277185	2.39955544
	359.034000	9.98042641	9.98549461	1.144E-006	1.88277495	2.39961576
	359.314000	9.98042801	9.98549341	1.164E-006	1.88273036	2.39954305
	359.589000	9.98042761	9.98549501	1.144E-006	1.88268268	2.39949727
	359.869000	9.98042721	9.98549601	1.137E-006	1.88262200	2.39949656
	360.159000	9.98042781	9.98549621	1.131E-006	1.88259709	2.39946294
	360.449000	9.98042821	9.98549601	1.150E-006	1.88271070	2.39957500
	360.734000	9.98042841	9.98549621	1.147E-006	1.88268232	2.39957094
	361.024000	9.98042841	9.98549701	1.132E-006	1.88269174	2.39957738
	361.304000	9.98042881	9.98549781	1.128E-006	1.88265347	2.39958382
	361.579000	9.98042921	9.98549701	1.139E-006	1.88269401	2.39963245
	361.869000	9.98042961	9.98549721	1.141E-006	1.88258767	2.39953685
	362.149000	9.98042941	9.98549761	1.129E-006	1.88259399	2.39951634
	362.429000	9.98043081	9.98549801	1.137E-006	1.88254714	2.39953923
	362.709000	9.98043041	9.98549801	1.137E-006	1.88256693	2.39954829
	362.989000	9.98043041	9.98549781	1.139E-006	1.88259220	2.39954591
	363.269000	9.98043061	9.98549721	1.141E-006	1.88260162	2.39965487
	363.549000	9.98043101	9.98549761	1.139E-006	1.88262129	2.39961958
	363.844000	9.98043161	9.98549721	1.162E-006	1.88263607	2.39961958
	364.139000	9.98043041	9.98549801	1.126E-006	1.88256323	2.39956665
	364.429000	9.98043061	9.98549761	1.135E-006	1.88264966	2.39965558
	364.709000	9.98043021	9.98549781	1.136E-006	1.88266695	2.39964795
	364.989000	9.98043321	9.98551261	8.258E-007	1.88314009	2.39908743
	365.279000	9.98043461	9.98551381	7.826E-007	1.88303137	2.39904881
	365.564000	9.98043481	9.98551381	7.692E-007	1.88309467	2.39905930
	365.849000	9.98043601	9.98551441	7.871E-007	1.88308072	2.39907360
	366.139000	9.98043601	9.98551481	7.776E-007	1.88305390	2.39906383
	366.429000	9.98043661	9.98551441	7.859E-007	1.88310993	2.39909792
	366.719000	9.98043661	9.98551441	7.751E-007	1.88302112	2.39900827
	367.004000	9.98043501	9.98551501	7.607E-007	1.88306916	2.39904404
	367.289000	9.98043621	9.98551461	7.809E-007	1.88311994	2.39905858
	367.579000	9.98043541	9.98551461	7.723E-007	1.88303936	2.39901376
	367.869000	9.98043601	9.98551381	7.889E-007	1.88307893	2.39902449
	368.164000	9.98043541	9.98551421	7.757E-007	1.88305581	2.39901781
	368.459000	9.98043581	9.98551321	7.936E-007	1.88308191	2.39903092
	368.749000	9.98043461	9.98551441	7.707E-007	1.88308275	2.39903951
	369.044000	9.98043481	9.98551361	7.720E-007	1.88307202	2.39901590
	369.339000	9.98043381	9.98551401	7.669E-007	1.88305020	2.39898109
	369.629000	9.98043421	9.98551381	7.719E-007	1.88298535	2.39896917
	369.914000	9.98043341	9.98551341	7.567E-007	1.88305759	2.39906120
	370.214000	9.98043361	9.98551281	7.740E-007	1.88315177	2.39909244
	370.514000	9.98043301	9.98551301	7.615E-007	1.88306749	2.39898682
	370.794000	9.98043341	9.98551281	7.643E-007	1.88309026	2.39904118
	371.079000	9.98043321	9.98551201	7.762E-007	1.88311493	2.39903927
	371.379000	9.98043401	9.98551161	7.899E-007	1.88305938	2.39902115
	371.674000	9.98043341	9.98551141	7.897E-007	1.88310051	2.39899969
	371.959000	9.98043241	9.98551221	7.693E-007	1.88310158	2.39903283
	372.259000	9.98043361	9.98551121	7.799E-007	1.88305700	2.39888477
	372.554000	9.98043141	9.98551261	7.583E-007	1.88304174	2.39894462
	372.839000	9.98043141	9.98551201	7.708E-007	1.88305485	2.39902520
	373.129000	9.98043241	9.98551121	7.830E-007	1.88307214	2.39900208
	373.424000	9.98043201	9.98551161	7.691E-007	1.88308871	2.39903522
	373.709000	9.98043161	9.98551121	7.697E-007	1.88311040	2.39903069
	373.999000	9.98043261	9.98551081	7.788E-007	1.88308072	2.39901018
	374.299000	9.98043241	9.98551081	7.808E-007	1.88307846	2.39904976
	374.584000	9.98043221	9.98551061	7.787E-007	1.88307536	2.39902329
	374.869000	9.98043101	9.98551121	7.717E-007	1.88307178	2.39904833
	375.159000	9.98043181	9.98551021	7.876E-007	1.88311529	2.39905834
	375.449000	9.98043201	9.98551061	7.848E-007	1.88310289	2.39903998
	375.744000	9.98043121	9.98551121	7.644E-007	1.88309324	2.39901257
	376.039000	9.98043161	9.98551001	7.780E-007	1.88304389	2.39893341
	376.329000	9.98043121	9.98551101	7.590E-007	1.88296950	2.39900088
	376.629000	9.98043161	9.98551021	7.814E-007	1.88308251	2.39897442
	376.914000	9.98043341	9.98550921	8.025E-007	1.88316596	2.39900827
	377.189000	9.98043061	9.98551081	7.640E-007	1.88308179	2.39901543
	377.479000	9.98043261	9.98550941	8.031E-007	1.88310468	2.39899945
	377.769000	9.98043161	9.98551021	7.841E-007	1.88309550	2.39902472
	378.059000	9.98043141	9.98551041	7.790E-007	1.88307714	2.39897466
	378.344000	9.98043161	9.98550961	7.758E-007	1.88306832	2.39893007
	378.629000	9.98043141	9.98551041	7.801E-007	1.88303149	2.39892483
	378.929000	9.98043141	9.98551041	7.764E-007	1.88297594	2.39889574
	379.224000	9.98043121	9.98551101	7.701E-007	1.88301158	2.39897037
	379.509000	9.98043121	9.98551061	7.692E-007	1.88306808	2.39893222
	379.814000	9.98043121	9.98551081	7.729E-007	1.88307786	2.39900994
	380.109000	9.98043161	9.98551001	7.702E-007	1.88310885	2.39897013
	380.389000	9.98043101	9.98551041	7.702E-007	1.88311958	2.39900613
	380.684000	9.98043081	9.98551061	7.670E-007	1.88309479	2.39902139
	380.979000	9.98043081	9.98551061	7.734E-007	1.88310635	2.39897203
	381.269000	9.98042901	9.98551181	7.540E-007	1.88304317	2.39891553
	381.559000	9.98043121	9.98551141	7.701E-007	1.88294554	2.39881873
	381.849000	9.98043141	9.98551101	7.707E-007	1.88299370	2.39891720
	382.144000	9.98043081	9.98551081	7.659E-007	1.88300526	2.39891243
	382.439000	9.98043141	9.98551081	7.742E-007	1.88301575	2.39893818
	382.734000	9.98043081	9.98551141	7.600E-007	1.88299882	2.39891696
	383.029000	9.98043101	9.98551161	7.557E-007	1.88296127	2.39885807
	383.319000	9.98043141	9.98551161	7.622E-007	1.88303947	2.39888835
	383.609000	9.98043221	9.98551101	7.774E-007	1.88303459	2.39898968
	383.894000	9.98043181	9.98551101	7.730E-007	1.88309073	2.39901996
	384.189000	9.98043201	9.98551041	7.837E-007	1.88308847	2.39901376
	384.489000	9.98043181	9.98551101	7.737E-007	1.88306308	2.39896703
	384.774000	9.98043201	9.98551101	7.862E-007	1.88311255	2.39892578
	385.059000	9.98043201	9.98551081	7.772E-007	1.88301873	2.39890695
	385.349000	9.98043181	9.98551121	7.793E-007	1.88303220	2.39904284
	385.644000	9.98043261	9.98551081	7.917E-007	1.88307619	2.39902115
	385.939000	9.98043221	9.98551141	7.695E-007	1.88304722	2.39896250
	386.229000	9.98043241	9.98551121	7.736E-007	1.88302028	2.39900565
	386.519000	9.98043201	9.98551161	7.750E-007	1.88306892	2.39902353
	386.814000	9.98043221	9.98551121	7.703E-007	1.88303339	2.39903212
	387.109000	9.98043301	9.98551121	7.796E-007	1.88306332	2.39906812
	387.399000	9.98043221	9.98551161	7.604E-007	1.88309836	2.39905739
	387.684000	9.98043381	9.98551041	7.907E-007	1.88310063	2.39906168
	387.979000	9.98043341	9.98551101	7.817E-007	1.88306069	2.39907193
	388.279000	9.98043481	9.98551081	7.904E-007	1.88297284	2.39898443
	388.564000	9.98043381	9.98551081	7.866E-007	1.88295925	2.39896441
	388.849000	9.98043341	9.98551121	7.778E-007	1.88301849	2.39904118
	389.149000	9.98043301	9.98551121	7.822E-007	1.88297927	2.39902973
	389.444000	9.98043361	9.98551101	7.756E-007	1.88291979	2.39903688
	389.739000	9.98043321	9.98551141	7.742E-007	1.88296950	2.39904404
	390.039000	9.98043401	9.98551101	7.831E-007	1.88296056	2.39900184
	390.324000	9.98043341	9.98551201	7.689E-007	1.88291323	2.39898157
	390.609000	9.98043421	9.98551141	7.702E-007	1.88291526	2.39898610
	390.909000	9.98043401	9.98551161	7.769E-007	1.88290930	2.39898181
	391.204000	9.98043421	9.98551161	7.736E-007	1.88286293	2.39899445
	391.489000	9.98043421	9.98551161	7.776E-007	1.88287604	2.39901328
	391.779000	9.98043381	9.98551121	7.756E-007	1.88287771	2.39909649
	392.074000	9.98043421	9.98551141	7.703E-007	1.88294756	2.39911556
	392.369000	9.98043421	9.98551121	7.628E-007	1.88292670	2.39911366
	392.659000	9.98043501	9.98551081	7.868E-007	1.88295507	2.39911222
	392.954000	9.98043461	9.98551161	7.708E-007	1.88293135	2.39907050
	393.249000	9.98043541	9.98551041	7.911E-007	1.88294888	2.39913583
	393.539000	9.98043561	9.98551061	7.813E-007	1.88289845	2.39913845
	393.829000	9.98043481	9.98551161	7.750E-007	1.88287127	2.39911866
	394.124000	9.98043501	9.98551101	7.779E-007	1.88291180	2.39914727
	394.419000	9.98043561	9.98551141	7.726E-007	1.88286698	2.39910793
	394.709000	9.98043641	9.98551041	7.943E-007	1.88290954	2.39914751
	394.994000	9.98043481	9.98551001	7.711E-007	1.88284576	2.39919448
	395.279000	9.98043641	9.98550981	7.874E-007	1.88279319	2.39916372
	395.569000	9.98043541	9.98551061	7.832E-007	1.88272452	2.39911938
	395.859000	9.98043741	9.98551021	7.936E-007	1.88273776	2.39915991
	396.149000	9.98043681	9.98550981	8.035E-007	1.88275218	2.39918399
	396.434000	9.98043641	9.98551061	7.771E-007	1.88265133	2.39906073
	396.719000	9.98043601	9.98551121	7.837E-007	1.88263869	2.39912152
	397.009000	9.98043521	9.98551161	7.626E-007	1.88264406	2.39909983
	397.299000	9.98043641	9.98551081	7.842E-007	1.88274956	2.39912534
	397.589000	9.98043521	9.98551121	7.578E-007	1.88272536	2.39919686
	397.874000	9.98043601	9.98551121	7.707E-007	1.88263571	2.39910293
	398.169000	9.98043641	9.98551081	7.792E-007	1.88262141	2.39910769
	398.464000	9.98043561	9.98551101	7.641E-007	1.88260913	2.39909983
	398.749000	9.98043601	9.98551101	7.664E-007	1.88265002	2.39915633
	399.049000	9.98043561	9.98551141	7.624E-007	1.88266695	2.39922452
	399.344000	9.98043601	9.98551101	7.749E-007	1.88269222	2.39920926
	399.629000	9.98043661	9.98551121	7.707E-007	1.88264775	2.39914703
	399.919000	9.98043741	9.98551021	7.830E-007	1.88265932	2.39916253
	400.219000	9.98043681	9.98551121	7.766E-007	1.88260734	2.39903879
	400.514000	9.98043701	9.98551081	7.797E-007	1.88257074	2.39908218
	400.799000	9.98043661	9.98551101	7.669E-007	1.88257420	2.39908624
	401.089000	9.98043681	9.98551121	7.710E-007	1.88256812	2.39908051
	401.384000	9.98043681	9.98551101	7.734E-007	1.88266182	2.39918876
	401.679000	9.98043601	9.98551201	7.628E-007	1.88264847	2.39921117
	401.969000	9.98043681	9.98551121	7.732E-007	1.88261473	2.39915729
	402.264000	9.98043701	9.98551061	7.809E-007	1.88261437	2.39914894
	402.559000	9.98043741	9.98551061	7.791E-007	1.88264620	2.39918470
	402.849000	9.98043801	9.98551081	7.923E-007	1.88262367	2.39918089
	403.184000	9.98043761	9.98551061	7.831E-007	1.88265669	2.39918542
	403.544000	9.98043681	9.98551141	7.760E-007	1.88266432	2.39916730
	403.859000	9.98043761	9.98551021	7.857E-007	1.88266933	2.39917541
	404.144000	9.98043801	9.98551041	7.790E-007	1.88266957	2.39918137
	404.429000	9.98043821	9.98550981	8.083E-007	1.88264191	2.39909363
	404.719000	9.98043621	9.98551181	7.593E-007	1.88253069	2.39911795
	405.009000	9.98043841	9.98551021	7.985E-007	1.88259363	2.39911032
	405.294000	9.98043781	9.98551081	7.810E-007	1.88261700	2.39916205
	405.574000	9.98043841	9.98551041	8.021E-007	1.88257480	2.39910650
	405.854000	9.98043841	9.98551041	7.868E-007	1.88262069	2.39911675
	406.139000	9.98043781	9.98551121	7.809E-007	1.88255453	2.39912415
	406.439000	9.98043721	9.98551081	7.860E-007	1.88260925	2.39928126
	406.759000	9.98043881	9.98551001	8.069E-007	1.88271558	2.39916372
	407.049000	9.98043881	9.98551041	7.990E-007	1.88260329	2.39912462
	407.314000	9.98043841	9.98551061	7.882E-007	1.88268900	2.39916801
	407.589000	9.98043761	9.98551061	7.875E-007	1.88264656	2.39924288
	407.869000	9.98043821	9.98551021	7.871E-007	1.88271534	2.39927530
	408.149000	9.98043801	9.98551041	7.818E-007	1.88267064	2.39924717
	408.419000	9.98043841	9.98551021	7.884E-007	1.88266551	2.39924192
	408.699000	9.98043761	9.98551101	7.747E-007	1.88261199	2.39921999
	408.989000	9.98043801	9.98551061	7.839E-007	1.88267446	2.39923596
	409.324000	9.98043841	9.98551041	7.895E-007	1.88265526	2.39922810
	409.654000	9.98043841	9.98551001	7.911E-007	1.88263762	2.39921379
	409.934000	9.98043801	9.98551021	7.893E-007	1.88261247	2.39916730
	410.224000	9.98043761	9.98551081	7.754E-007	1.88262093	2.39919996
	410.514000	9.98043841	9.98551021	7.898E-007	1.88263857	2.39920831
	410.789000	9.98043901	9.98551021	8.058E-007	1.88263202	2.39921331
	411.094000	9.98043741	9.98551161	7.691E-007	1.88261211	2.39922881
	411.399000	9.98043821	9.98551021	7.899E-007	1.88262558	2.39923453
	411.679000	9.98043841	9.98551061	7.773E-007	1.88263285	2.39915514
	411.959000	9.98043781	9.98551081	7.719E-007	1.88257957	2.39918828
	412.244000	9.98043881	9.98551021	7.888E-007	1.88258493	2.39915156
	412.539000	9.98043841	9.98551021	7.938E-007	1.88267291	2.39924645
	412.874000	9.98043781	9.98551121	7.844E-007	1.88266897	2.39923739
	413.209000	9.98043741	9.98551001	7.823E-007	1.88272667	2.39920259
	413.499000	9.98043861	9.98551001	7.973E-007	1.88261425	2.39919424
	413.779000	9.98043741	9.98551041	7.753E-007	1.88264608	2.39923620
	414.059000	9.98043741	9.98551021	7.821E-007	1.88258433	2.39913678
	414.339000	9.98043841	9.98551041	7.807E-007	1.88262248	2.39924765
	414.624000	9.98043681	9.98551141	7.706E-007	1.88264894	2.39923072
	414.904000	9.98043801	9.98551001	7.781E-007	1.88276911	2.39933252
	415.189000	9.98043901	9.98550941	8.056E-007	1.88278854	2.39933825
	415.479000	9.98043861	9.98551081	7.833E-007	1.88256752	2.39913774
	415.759000	9.98043941	9.98550981	7.971E-007	1.88257623	2.39920902
	416.039000	9.98043881	9.98551061	7.915E-007	1.88256979	2.39916945
	416.309000	9.98043861	9.98551001	7.929E-007	1.88263929	2.39921570
	416.589000	9.98043901	9.98551061	7.907E-007	1.88257039	2.39917588
	416.884000	9.98043881	9.98551061	7.839E-007	1.88255286	2.39916396
	417.179000	9.98043901	9.98550961	7.954E-007	1.88260365	2.39928341
	417.459000	9.98043881	9.98551041	7.933E-007	1.88257480	2.39916158
	417.729000	9.98043941	9.98551041	7.858E-007	1.88257027	2.39919209
	418.009000	9.98043861	9.98551061	7.901E-007	1.88253808	2.39919019
	418.289000	9.98043901	9.98551061	8.015E-007	1.88256896	2.39925432
	418.569000	9.98043841	9.98551061	7.808E-007	1.88262260	2.39926600
	418.864000	9.98043861	9.98551061	7.802E-007	1.88263452	2.39924431
	419.159000	9.98043861	9.98551021	7.933E-007	1.88265800	2.39929056
	419.449000	9.98043861	9.98551021	7.958E-007	1.88262618	2.39923573
	419.754000	9.98043801	9.98551061	7.824E-007	1.88263488	2.39923549
	420.059000	9.98043901	9.98551021	7.869E-007	1.88258839	2.39919639
	420.339000	9.98043841	9.98551041	7.759E-007	1.88260639	2.39919305
	420.624000	9.98043841	9.98551041	7.830E-007	1.88256013	2.39918756
	420.914000	9.98043801	9.98551101	7.632E-007	1.88261127	2.39922500
	421.189000	9.98043841	9.98551081	7.811E-007	1.88256097	2.39917684
	421.469000	9.98043901	9.98551041	7.877E-007	1.88250315	2.39915180
	421.754000	9.98043781	9.98551101	7.717E-007	1.88252306	2.39919424
	422.039000	9.98043801	9.98551101	7.753E-007	1.88260972	2.39928961
	422.319000	9.98043861	9.98551061	7.789E-007	1.88265812	2.39928412
	422.599000	9.98043901	9.98551001	7.881E-007	1.88262141	2.39925098
	422.899000	9.98043841	9.98551081	7.722E-007	1.88258576	2.39923358
	423.189000	9.98043881	9.98551001	7.927E-007	1.88259697	2.39922738
	423.469000	9.98043921	9.98551021	7.918E-007	1.88259411	2.39921188
	423.794000	9.98043921	9.98551021	7.934E-007	1.88252687	2.39920950
	424.109000	9.98043941	9.98550921	8.026E-007	1.88265049	2.39925265
	424.389000	9.98043961	9.98550961	8.050E-007	1.88263142	2.39924073
	424.679000	9.98043861	9.98551021	7.955E-007	1.88260889	2.39923096
	424.959000	9.98043901	9.98550981	7.852E-007	1.88260353	2.39919305
	425.289000	9.98043841	9.98551061	7.800E-007	1.88260365	2.39914393
	425.619000	9.98043901	9.98550981	7.834E-007	1.88256240	2.39918137
	425.904000	9.98043801	9.98551121	7.782E-007	1.88247359	2.39921522
	426.214000	9.98043881	9.98551001	7.858E-007	1.88262522	2.39925146
	426.494000	9.98043961	9.98550981	7.961E-007	1.88255346	2.39915085
	426.759000	9.98043861	9.98551041	7.780E-007	1.88254142	2.39924908
	427.049000	9.98043821	9.98551101	7.663E-007	1.88259900	2.39922595
	427.339000	9.98043841	9.98550961	7.832E-007	1.88261235	2.39922094
	427.624000	9.98043841	9.98551021	7.868E-007	1.88254952	2.39919639
	427.904000	9.98043921	9.98550961	7.986E-007	1.88253677	2.39918423
	428.184000	9.98044001	9.98550921	8.024E-007	1.88255286	2.39921594
	428.469000	9.98043901	9.98551041	7.942E-007	1.88265741	2.39918303
	428.759000	9.98043721	9.98551101	7.752E-007	1.88272917	2.39924717
	429.039000	9.98043821	9.98551001	7.894E-007	1.88270009	2.39928365
	429.319000	9.98043821	9.98551021	7.811E-007	1.88269985	2.39926386
	429.609000	9.98043821	9.98551061	7.760E-007	1.88271046	2.39924765
	429.894000	9.98043681	9.98551121	7.677E-007	1.88264441	2.39923716
	430.179000	9.98043801	9.98551021	7.817E-007	1.88260889	2.39928651
	430.459000	9.98043781	9.98551021	7.748E-007	1.88268077	2.39923239
	430.739000	9.98043841	9.98551021	7.780E-007	1.88264346	2.39925647
	431.029000	9.98043921	9.98551001	7.889E-007	1.88263416	2.39924312
	431.319000	9.98043761	9.98551061	7.722E-007	1.88268149	2.39929700
	431.609000	9.98043821	9.98551041	7.721E-007	1.88253832	2.39916468
	431.894000	9.98043861	9.98551081	7.796E-007	1.88251233	2.39916897
	432.179000	9.98043741	9.98551141	7.564E-007	1.88259041	2.39920592
	432.469000	9.98043841	9.98551041	7.830E-007	1.88254130	2.39921951
	432.759000	9.98043841	9.98551061	7.774E-007	1.88259363	2.39924622
	433.049000	9.98043881	9.98551021	7.820E-007	1.88258278	2.39923739
	433.334000	9.98043861	9.98551021	7.901E-007	1.88257706	2.39920306
	433.619000	9.98043801	9.98551081	7.723E-007	1.88256073	2.39918900
	433.909000	9.98043841	9.98551021	7.815E-007	1.88249481	2.39922905
	434.199000	9.98043801	9.98551041	7.731E-007	1.88257647	2.39922452
	434.489000	9.98043881	9.98551001	7.956E-007	1.88269675	2.39926505
	434.774000	9.98043841	9.98551021	7.792E-007	1.88260710	2.39923716
	435.059000	9.98043861	9.98550981	7.882E-007	1.88262010	2.39922833
	435.349000	9.98043741	9.98551141	7.577E-007	1.88262117	2.39921522
	435.639000	9.98043921	9.98550961	7.912E-007	1.88258481	2.39923334
	435.929000	9.98043941	9.98550981	7.946E-007	1.88267112	2.39927101
	436.214000	9.98043921	9.98550981	7.975E-007	1.88259614	2.39913869
	436.499000	9.98043861	9.98551061	7.830E-007	1.88260424	2.39919639
	436.779000	9.98043901	9.98550961	7.933E-007	1.88259709	2.39921236
	437.069000	9.98043881	9.98550981	8.033E-007	1.88249707	2.39916348
	437.359000	9.98043861	9.98551001	7.902E-007	1.88257349	2.39923620
	437.644000	9.98043781	9.98551061	7.751E-007	1.88260746	2.39922142
	437.929000	9.98043781	9.98551061	7.741E-007	1.88260210	2.39921975
	438.209000	9.98043941	9.98550981	7.891E-007	1.88253415	2.39917135
	438.509000	9.98043841	9.98550981	7.894E-007	1.88251746	2.39921308
	438.799000	9.98043921	9.98550961	7.835E-007	1.88255358	2.39924407
	439.079000	9.98043901	9.98551001	7.889E-007	1.88252258	2.39922976
	439.364000	9.98043821	9.98551061	7.704E-007	1.88253105	2.39920735
	439.649000	9.98043861	9.98551021	7.839E-007	1.88252664	2.39920235
	439.939000	9.98043941	9.98550981	7.953E-007	1.88247037	2.39917564
	440.229000	9.98043761	9.98551081	7.645E-007	1.88249338	2.39919782
	440.519000	9.98043881	9.98550981	7.957E-007	1.88255751	2.39919090
	440.804000	9.98043861	9.98551061	7.770E-007	1.88251734	2.39915252
	441.089000	9.98043881	9.98550961	7.835E-007	1.88258886	2.39922857
	441.379000	9.98043861	9.98551081	7.725E-007	1.88258719	2.39917564
	441.669000	9.98043901	9.98551001	7.966E-007	1.88265026	2.39925241
	441.949000	9.98043801	9.98551041	7.727E-007	1.88264060	2.39928532
	442.229000	9.98043901	9.98550981	8.024E-007	1.88263893	2.39926696
	442.514000	9.98043801	9.98551001	7.767E-007	1.88261342	2.39921641
	442.799000	9.98043881	9.98551021	7.843E-007	1.88261700	2.39923573
	443.089000	9.98043801	9.98551061	7.658E-007	1.88262403	2.39926815
	443.369000	9.98043821	9.98551041	7.705E-007	1.88257408	2.39920974
	443.649000	9.98043861	9.98550981	7.881E-007	1.88266933	2.39928365
	443.939000	9.98043841	9.98551041	7.821E-007	1.88264835	2.39928699
	444.229000	9.98043861	9.98551041	7.717E-007	1.88256693	2.39921498
	444.514000	9.98043801	9.98551061	7.724E-007	1.88258696	2.39924216
	444.799000	9.98043841	9.98551041	7.762E-007	1.88261843	2.39924932
	445.089000	9.98043881	9.98551001	7.871E-007	1.88257086	2.39924908
	445.379000	9.98043861	9.98551021	7.790E-007	1.88257134	2.39921021
	445.669000	9.98043861	9.98551021	7.872E-007	1.88261139	2.39925170
	445.954000	9.98043901	9.98550981	7.847E-007	1.88256192	2.39919734
	446.249000	9.98043841	9.98551041	7.850E-007	1.88255012	2.39921522
	446.549000	9.98043821	9.98551061	7.731E-007	1.88254440	2.39921641
	446.834000	9.98043841	9.98550961	7.883E-007	1.88259816	2.39916539
	447.114000	9.98043921	9.98550941	7.868E-007	1.88255453	2.39916921
	447.394000	9.98043821	9.98551021	7.708E-007	1.88257456	2.39926505
	447.679000	9.98043821	9.98551021	7.866E-007	1.88258386	2.39918303
	447.969000	9.98043901	9.98550981	7.916E-007	1.88262987	2.39923954
	448.259000	9.98043861	9.98550961	7.884E-007	1.88256276	2.39921284
	448.544000	9.98043881	9.98551021	7.780E-007	1.88251734	2.39918709
	448.829000	9.98043821	9.98551061	7.806E-007	1.88248646	2.39922547
	449.119000	9.98043881	9.98551061	7.771E-007	1.88257051	2.39921689
	449.399000	9.98043861	9.98551021	7.917E-007	1.88260162	2.39921474
	449.679000	9.98043841	9.98551021	7.825E-007	1.88257432	2.39925838
	449.969000	9.98043821	9.98551061	7.738E-007	1.88257873	2.39924669
	450.259000	9.98043841	9.98551041	7.775E-007	1.88257694	2.39920664
	450.544000	9.98043861	9.98551021	7.853E-007	1.88252497	2.39918566
	450.829000	9.98043901	9.98551001	7.763E-007	1.88258183	2.39919734
	451.119000	9.98043901	9.98551021	7.894E-007	1.88247907	2.39915586
	451.409000	9.98043721	9.98551101	7.684E-007	1.88254726	2.39920640
	451.699000	9.98043861	9.98550981	7.800E-007	1.88256466	2.39919686
	451.984000	9.98043801	9.98550981	7.781E-007	1.88248503	2.39917469
	452.269000	9.98043801	9.98551041	7.769E-007	1.88256466	2.39922762
	452.559000	9.98043921	9.98550981	7.929E-007	1.88256049	2.39924169
	452.854000	9.98043821	9.98551021	7.763E-007	1.88258636	2.39927649
	453.144000	9.98043861	9.98551001	7.794E-007	1.88259351	2.39922762
	453.429000	9.98043861	9.98551021	7.828E-007	1.88267338	2.39927769
	453.714000	9.98043801	9.98551121	7.754E-007	1.88256001	2.39917803
	454.009000	9.98043841	9.98551021	7.818E-007	1.88257813	2.39926291
	454.299000	9.98043841	9.98551041	7.735E-007	1.88259256	2.39921427
	454.584000	9.98043801	9.98551041	7.675E-007	1.88256061	2.39921618
	454.879000	9.98043741	9.98551021	7.650E-007	1.88255727	2.39922643
	455.159000	9.98043901	9.98551001	7.933E-007	1.88248730	2.39917397
	455.439000	9.98043841	9.98551001	7.868E-007	1.88258815	2.39924550
	455.719000	9.98043921	9.98550961	7.861E-007	1.88270044	2.39924979
	455.999000	9.98043801	9.98551001	7.767E-007	1.88266158	2.39926171
	456.294000	9.98043861	9.98551021	7.702E-007	1.88258851	2.39922071
	456.589000	9.98043761	9.98550981	7.962E-007	1.88267803	2.39933133
	456.879000	9.98043741	9.98551021	7.722E-007	1.88269603	2.39931059
	457.174000	9.98043841	9.98551001	7.743E-007	1.88263226	2.39926577
	457.459000	9.98043861	9.98550981	7.862E-007	1.88264883	2.39925671
	457.739000	9.98043961	9.98550961	7.934E-007	1.88263881	2.39924026
	458.019000	9.98043921	9.98551001	7.829E-007	1.88260782	2.39925909
	458.309000	9.98043921	9.98550961	7.918E-007	1.88261938	2.39925790
	458.599000	9.98043861	9.98551001	7.825E-007	1.88259220	2.39923620
	458.879000	9.98043821	9.98551001	7.761E-007	1.88264573	2.39924836
	459.169000	9.98043881	9.98551001	7.932E-007	1.88258672	2.39923739
	459.454000	9.98043921	9.98550981	7.948E-007	1.88258493	2.39916706
	459.749000	9.98043781	9.98551081	7.637E-007	1.88258505	2.39925885
	460.039000	9.98043921	9.98551001	7.866E-007	1.88253725	2.39918447
	460.319000	9.98043841	9.98551061	7.639E-007	1.88254809	2.39913583
	460.609000	9.98043801	9.98551041	7.619E-007	1.88256347	2.39913678
	460.894000	9.98043821	9.98551001	7.722E-007	1.88258922	2.39918804
	461.179000	9.98043841	9.98551041	7.769E-007	1.88260114	2.39921021
	461.469000	9.98043821	9.98551041	7.651E-007	1.88259149	2.39916158
	461.759000	9.98043801	9.98551041	7.693E-007	1.88251770	2.39915943
	462.044000	9.98043761	9.98551081	7.616E-007	1.88249922	2.39916420
	462.329000	9.98043801	9.98551001	7.830E-007	1.88248801	2.39923549
	462.624000	9.98043821	9.98551001	7.782E-007	1.88262999	2.39926243
	462.914000	9.98043821	9.98551021	7.844E-007	1.88261068	2.39926481
	463.199000	9.98043761	9.98551061	7.663E-007	1.88261986	2.39924312
	463.484000	9.98043861	9.98551021	7.838E-007	1.88260281	2.39926076
	463.769000	9.98043821	9.98551001	7.747E-007	1.88257694	2.39920068
	464.059000	9.98043761	9.98551041	7.638E-007	1.88257325	2.39922452
	464.349000	9.98043861	9.98551061	7.779E-007	1.88251269	2.39922166
	464.644000	9.98043881	9.98550981	7.792E-007	1.88265443	2.39928460
	464.939000	9.98043801	9.98551041	7.697E-007	1.88262951	2.39925742
	465.229000	9.98043901	9.98551001	7.846E-007	1.88252926	2.39921188
	465.519000	9.98043901	9.98550961	7.943E-007	1.88263381	2.39925551
	465.804000	9.98043941	9.98550961	7.990E-007	1.88259065	2.39925861
	466.089000	9.98043821	9.98551021	7.726E-007	1.88259459	2.39920044
	466.379000	9.98043821	9.98551041	7.737E-007	1.88258386	2.39921951
	466.669000	9.98043821	9.98551041	7.756E-007	1.88261867	2.39925575
	466.954000	9.98043901	9.98551021	7.823E-007	1.88266408	2.39930320
	467.239000	9.98043921	9.98550981	7.938E-007	1.88262534	2.39926815
	467.529000	9.98043781	9.98551021	7.678E-007	1.88262141	2.39926982
	467.824000	9.98043881	9.98550941	7.882E-007	1.88265932	2.39927602
	468.114000	9.98043861	9.98551021	7.896E-007	1.88262749	2.39930797
	468.394000	9.98043941	9.98550921	7.961E-007	1.88262343	2.39930153
	468.679000	9.98043941	9.98550921	8.011E-007	1.88259375	2.39919043
	468.969000	9.98043801	9.98551041	7.654E-007	1.88262224	2.39931154
	469.264000	9.98043821	9.98551021	7.678E-007	1.88257909	2.39918995
	469.554000	9.98043861	9.98550961	7.863E-007	1.88253272	2.39921141
	469.844000	9.98043821	9.98551021	7.707E-007	1.88267338	2.39930010
	470.139000	9.98043881	9.98550961	7.765E-007	1.88261116	2.39923882
	470.434000	9.98043921	9.98551001	7.838E-007	1.88250709	2.39913774
	470.729000	9.98043921	9.98550981	7.849E-007	1.88255012	2.39913559
	471.024000	9.98043861	9.98550941	7.850E-007	1.88254178	2.39920115
	471.314000	9.98043901	9.98551021	7.791E-007	1.88252521	2.39914060
	471.594000	9.98043841	9.98551021	7.873E-007	1.88264024	2.39928651
	471.879000	9.98043821	9.98551061	7.666E-007	1.88263810	2.39927220
	472.169000	9.98043781	9.98551101	7.688E-007	1.88260603	2.39922953
	472.459000	9.98043761	9.98551121	7.592E-007	1.88248968	2.39914489
	472.744000	9.98043821	9.98551041	7.695E-007	1.88252771	2.39917421
